File: _archive/xrd_analysis/notebooks/mask-and-integrate/combined.xy
# 2Theta    Intensity
4.3096e-03  6.2467e+00
1.8127e-02  4.6840e+00
3.3666e-02  4.7389e+00
4.9205e-02  5.6941e+00
6.4744e-02  5.6787e+00
8.0283e-02  5.7327e+00
9.5822e-02  5.6628e+00
1.1136e-01  6.7187e+00
1.2690e-01  6.0968e+00
1.4244e-01  7.1629e+00
1.5798e-01  8.3189e+00
1.7352e-01  9.9720e+00
1.8906e-01  1.1637e+01
2.0460e-01  1.2139e+01
2.2013e-01  1.3745e+01
2.3567e-01  1.5533e+01
2.5121e-01  1.6298e+01
2.6675e-01  1.6987e+01
2.8229e-01  1.8678e+01
2.9783e-01  1.9513e+01
3.1337e-01  2.0661e+01
3.2891e-01  2.2403e+01
3.4445e-01  2.2395e+01
3.5998e-01  2.3784e+01
3.7552e-01  2.4475e+01
3.9106e-01  2.5069e+01
4.0660e-01  2.5513e+01
4.2214e-01  2.6334e+01
4.3768e-01  2.6200e+01
4.5322e-01  2.7947e+01
4.6876e-01  2.8296e+01
4.8430e-01  2.8490e+01
4.9983e-01  2.9338e+01
5.1537e-01  2.9616e+01
5.3091e-01  2.9524e+01
5.4645e-01  2.9801e+01
5.6199e-01  3.0018e+01
5.7753e-01  3.0354e+01
5.9307e-01  3.1308e+01
6.0861e-01  3.2266e+01
6.2415e-01  3.2853e+01
6.3968e-01  3.4541e+01
6.5522e-01  3.6044e+01
6.7076e-01  3.8400e+01
6.8630e-01  4.2057e+01
7.0184e-01  4.4131e+01
7.1738e-01  4.5515e+01
7.3292e-01  4.6467e+01
7.4845e-01  4.5912e+01
7.6399e-01  4.7064e+01
7.7953e-01  4.7983e+01
7.9507e-01  4.8626e+01
8.1061e-01  5.0174e+01
8.2615e-01  5.2200e+01
8.4168e-01  5.5651e+01
8.5722e-01  5.5815e+01
8.7276e-01  5.6967e+01
8.8830e-01  5.7674e+01
9.0384e-01  5.8644e+01
9.1937e-01  6.1304e+01
9.3491e-01  6.2375e+01
9.5045e-01  6.3273e+01
9.6599e-01  6.3594e+01
9.8152e-01  6.4344e+01
9.9706e-01  6.4169e+01
1.0126e+00  6.4075e+01
1.0281e+00  6.3838e+01
1.0437e+00  6.3799e+01
1.0592e+00  6.3522e+01
1.0747e+00  6.3274e+01
1.0903e+00  6.2721e+01
1.1058e+00  6.2499e+01
1.1214e+00  6.2127e+01
1.1369e+00  6.1890e+01
1.1524e+00  6.1841e+01
1.1680e+00  6.1316e+01
1.1835e+00  6.1465e+01
1.1990e+00  6.1265e+01
1.2146e+00  6.1160e+01
1.2301e+00  6.1090e+01
1.2456e+00  6.1300e+01
1.2612e+00  6.1432e+01
1.2767e+00  6.1915e+01
1.2922e+00  6.2321e+01
1.3078e+00  6.2853e+01
1.3233e+00  6.3241e+01
1.3389e+00  6.4163e+01
1.3544e+00  6.3910e+01
1.3699e+00  6.3542e+01
1.3855e+00  6.3030e+01
1.4010e+00  6.2918e+01
1.4165e+00  6.2305e+01
1.4321e+00  6.2070e+01
1.4476e+00  6.1695e+01
1.4631e+00  6.1462e+01
1.4787e+00  6.1397e+01
1.4942e+00  6.0941e+01
1.5097e+00  6.0745e+01
1.5253e+00  6.0260e+01
1.5408e+00  6.0231e+01
1.5563e+00  6.0035e+01
1.5719e+00  5.9849e+01
1.5874e+00  5.9705e+01
1.6029e+00  5.9894e+01
1.6184e+00  5.9813e+01
1.6340e+00  5.9853e+01
1.6495e+00  5.9744e+01
1.6650e+00  6.0211e+01
1.6806e+00  6.0264e+01
1.6961e+00  6.0706e+01
1.7116e+00  6.0639e+01
1.7272e+00  6.0999e+01
1.7427e+00  6.0993e+01
1.7582e+00  6.1042e+01
1.7738e+00  6.1011e+01
1.7893e+00  6.1059e+01
1.8048e+00  6.0952e+01
1.8203e+00  6.0727e+01
1.8359e+00  6.0547e+01
1.8514e+00  6.0021e+01
1.8669e+00  5.9696e+01
1.8825e+00  5.9729e+01
1.8980e+00  5.9592e+01
1.9135e+00  5.9678e+01
1.9290e+00  5.9702e+01
1.9446e+00  5.9796e+01
1.9601e+00  5.9893e+01
1.9756e+00  5.9937e+01
1.9911e+00  5.9878e+01
2.0067e+00  5.9496e+01
2.0222e+00  5.9575e+01
2.0377e+00  5.8978e+01
2.0532e+00  5.8830e+01
2.0688e+00  5.8626e+01
2.0843e+00  5.8477e+01
2.0998e+00  5.8625e+01
2.1153e+00  5.8469e+01
2.1309e+00  5.8110e+01
2.1464e+00  5.7982e+01
2.1619e+00  5.7862e+01
2.1774e+00  5.7453e+01
2.1930e+00  5.7459e+01
2.2085e+00  5.7380e+01
2.2240e+00  5.7198e+01
2.2395e+00  5.7045e+01
2.2551e+00  5.7180e+01
2.2706e+00  5.7409e+01
2.2861e+00  5.8138e+01
2.3016e+00  5.6550e+01
2.3171e+00  5.6341e+01
2.3327e+00  5.6218e+01
2.3482e+00  5.5826e+01
2.3637e+00  5.5790e+01
2.3792e+00  5.5639e+01
2.3947e+00  5.5333e+01
2.4103e+00  5.5306e+01
2.4258e+00  5.5880e+01
2.4413e+00  5.5874e+01
2.4568e+00  5.4913e+01
2.4723e+00  5.4994e+01
2.4879e+00  5.4907e+01
2.5034e+00  5.4753e+01
2.5189e+00  5.5308e+01
2.5344e+00  5.6205e+01
2.5499e+00  5.7936e+01
2.5654e+00  8.3790e+01
2.5810e+00  7.3763e+02
2.5965e+00  4.9488e+02
2.6120e+00  6.7162e+01
2.6275e+00  5.7210e+01
2.6430e+00  5.5195e+01
2.6585e+00  5.4345e+01
2.6740e+00  5.3668e+01
2.6896e+00  5.3102e+01
2.7051e+00  5.3102e+01
2.7206e+00  5.2654e+01
2.7361e+00  5.3228e+01
2.7516e+00  5.3580e+01
2.7671e+00  5.2233e+01
2.7826e+00  5.0979e+01
2.7981e+00  5.0635e+01
2.8137e+00  5.0862e+01
2.8292e+00  5.5128e+01
2.8447e+00  5.3680e+01
2.8602e+00  4.9232e+01
2.8757e+00  4.8470e+01
2.8912e+00  4.8200e+01
2.9067e+00  4.7890e+01
2.9222e+00  4.8086e+01
2.9377e+00  4.7707e+01
2.9532e+00  4.7599e+01
2.9687e+00  4.7620e+01
2.9842e+00  4.6992e+01
2.9998e+00  4.7108e+01
3.0153e+00  4.6661e+01
3.0308e+00  4.6783e+01
3.0463e+00  4.6738e+01
3.0618e+00  4.7231e+01
3.0773e+00  4.8052e+01
3.0928e+00  4.8167e+01
3.1083e+00  4.6898e+01
3.1238e+00  4.6758e+01
3.1393e+00  4.6848e+01
3.1548e+00  4.6993e+01
3.1703e+00  4.7293e+01
3.1858e+00  4.7731e+01
3.2013e+00  4.7739e+01
3.2168e+00  4.7873e+01
3.2323e+00  4.6774e+01
3.2478e+00  4.5846e+01
3.2633e+00  4.5053e+01
3.2788e+00  4.4651e+01
3.2943e+00  4.4217e+01
3.3098e+00  4.3848e+01
3.3253e+00  4.3829e+01
3.3408e+00  4.3354e+01
3.3563e+00  4.2852e+01
3.3718e+00  4.2563e+01
3.3873e+00  4.2559e+01
3.4028e+00  4.2046e+01
3.4183e+00  4.2408e+01
3.4338e+00  4.2942e+01
3.4493e+00  4.3652e+01
3.4647e+00  4.3397e+01
3.4802e+00  4.1631e+01
3.4957e+00  4.1095e+01
3.5112e+00  4.1172e+01
3.5267e+00  4.1485e+01
3.5422e+00  4.1337e+01
3.5577e+00  4.1011e+01
3.5732e+00  4.0986e+01
3.5887e+00  4.1453e+01
3.6042e+00  4.3098e+01
3.6197e+00  4.6715e+01
3.6351e+00  7.8222e+01
3.6506e+00  8.9246e+02
3.6661e+00  1.0602e+03
3.6816e+00  7.7623e+01
3.6971e+00  4.6850e+01
3.7126e+00  4.2557e+01
3.7281e+00  4.0679e+01
3.7436e+00  3.9267e+01
3.7590e+00  3.8279e+01
3.7745e+00  3.7757e+01
3.7900e+00  3.7180e+01
3.8055e+00  3.6978e+01
3.8210e+00  3.6656e+01
3.8365e+00  3.6504e+01
3.8519e+00  3.7461e+01
3.8674e+00  3.8055e+01
3.8829e+00  3.6334e+01
3.8984e+00  3.5790e+01
3.9139e+00  3.5919e+01
3.9293e+00  3.5630e+01
3.9448e+00  3.5841e+01
3.9603e+00  3.6206e+01
3.9758e+00  3.7006e+01
3.9912e+00  3.9671e+01
4.0067e+00  4.8908e+01
4.0222e+00  4.3822e+01
4.0377e+00  3.7462e+01
4.0531e+00  3.7726e+01
4.0686e+00  3.8867e+01
4.0841e+00  3.8891e+01
4.0996e+00  3.5997e+01
4.1150e+00  3.4691e+01
4.1305e+00  3.4127e+01
4.1460e+00  3.3674e+01
4.1615e+00  3.3460e+01
4.1769e+00  3.3515e+01
4.1924e+00  3.3700e+01
4.2079e+00  3.4384e+01
4.2233e+00  3.5225e+01
4.2388e+00  3.3832e+01
4.2543e+00  3.3101e+01
4.2697e+00  3.3025e+01
4.2852e+00  3.3096e+01
4.3007e+00  3.3185e+01
4.3161e+00  3.4721e+01
4.3316e+00  3.6051e+01
4.3471e+00  3.3769e+01
4.3625e+00  3.3285e+01
4.3780e+00  3.2979e+01
4.3934e+00  3.2846e+01
4.4089e+00  3.3513e+01
4.4244e+00  3.4199e+01
4.4398e+00  3.6055e+01
4.4553e+00  4.6284e+01
4.4707e+00  3.0729e+02
4.4862e+00  5.8904e+02
4.5017e+00  6.8418e+01
4.5171e+00  3.7990e+01
4.5326e+00  3.4775e+01
4.5480e+00  3.3528e+01
4.5635e+00  3.2937e+01
4.5789e+00  3.2415e+01
4.5944e+00  3.2093e+01
4.6099e+00  3.2054e+01
4.6253e+00  3.1737e+01
4.6408e+00  3.1463e+01
4.6562e+00  3.1415e+01
4.6717e+00  3.1470e+01
4.6871e+00  3.2405e+01
4.7026e+00  3.2337e+01
4.7180e+00  3.1244e+01
4.7335e+00  3.0999e+01
4.7489e+00  3.0926e+01
4.7644e+00  3.1014e+01
4.7798e+00  3.0717e+01
4.7952e+00  3.0836e+01
4.8107e+00  3.0902e+01
4.8261e+00  3.1183e+01
4.8416e+00  3.1310e+01
4.8570e+00  3.1453e+01
4.8725e+00  3.1965e+01
4.8879e+00  3.2087e+01
4.9034e+00  3.5391e+01
4.9188e+00  3.5870e+01
4.9342e+00  3.2100e+01
4.9497e+00  3.1184e+01
4.9651e+00  3.0974e+01
4.9805e+00  3.0799e+01
4.9960e+00  3.0619e+01
5.0114e+00  3.0826e+01
5.0269e+00  3.1385e+01
5.0423e+00  3.0943e+01
5.0577e+00  3.0841e+01
5.0732e+00  3.2294e+01
5.0886e+00  3.3325e+01
5.1040e+00  3.1496e+01
5.1195e+00  3.1303e+01
5.1349e+00  3.2281e+01
5.1503e+00  4.1384e+01
5.1658e+00  2.1553e+02
5.1812e+00  2.9542e+02
5.1966e+00  4.5453e+01
5.2120e+00  3.2400e+01
5.2275e+00  3.1442e+01
5.2429e+00  3.0808e+01
5.2583e+00  3.0681e+01
5.2737e+00  3.0866e+01
5.2892e+00  3.0718e+01
5.3046e+00  3.0557e+01
5.3200e+00  3.0910e+01
5.3354e+00  3.2060e+01
5.3509e+00  3.1214e+01
5.3663e+00  3.0399e+01
5.3817e+00  3.0186e+01
5.3971e+00  3.0085e+01
5.4125e+00  2.9989e+01
5.4280e+00  2.9981e+01
5.4434e+00  3.0169e+01
5.4588e+00  3.0199e+01
5.4742e+00  3.0456e+01
5.4896e+00  3.0875e+01
5.5050e+00  3.1179e+01
5.5204e+00  3.0843e+01
5.5359e+00  3.0685e+01
5.5513e+00  3.0642e+01
5.5667e+00  3.0778e+01
5.5821e+00  3.1169e+01
5.5975e+00  3.1205e+01
5.6129e+00  3.0906e+01
5.6283e+00  3.0848e+01
5.6437e+00  3.1090e+01
5.6591e+00  3.3063e+01
5.6745e+00  3.5018e+01
5.6899e+00  3.2556e+01
5.7053e+00  3.1267e+01
5.7207e+00  3.1577e+01
5.7361e+00  3.2561e+01
5.7515e+00  3.6174e+01
5.7670e+00  1.0895e+02
5.7824e+00  6.7565e+02
5.7978e+00  3.7442e+02
5.8131e+00  4.4498e+01
5.8285e+00  3.4155e+01
5.8439e+00  3.1787e+01
5.8593e+00  3.0668e+01
5.8747e+00  3.0280e+01
5.8901e+00  2.9787e+01
5.9055e+00  2.9559e+01
5.9209e+00  2.9258e+01
5.9363e+00  2.9195e+01
5.9517e+00  2.9108e+01
5.9671e+00  2.9022e+01
5.9825e+00  2.8915e+01
5.9979e+00  2.8881e+01
6.0133e+00  2.9014e+01
6.0286e+00  2.8974e+01
6.0440e+00  2.9164e+01
6.0594e+00  2.9445e+01
6.0748e+00  2.9933e+01
6.0902e+00  3.0243e+01
6.1056e+00  2.9971e+01
6.1210e+00  2.9536e+01
6.1363e+00  2.9269e+01
6.1517e+00  2.8922e+01
6.1671e+00  2.8854e+01
6.1825e+00  2.9582e+01
6.1979e+00  2.9187e+01
6.2132e+00  2.8881e+01
6.2286e+00  2.9033e+01
6.2440e+00  2.8935e+01
6.2594e+00  2.9338e+01
6.2747e+00  2.9688e+01
6.2901e+00  3.0163e+01
6.3055e+00  3.3020e+01
6.3208e+00  8.7536e+01
6.3362e+00  3.7449e+02
6.3516e+00  1.9506e+02
6.3670e+00  3.6862e+01
6.3823e+00  3.1051e+01
6.3977e+00  2.9712e+01
6.4131e+00  2.9120e+01
6.4284e+00  2.8746e+01
6.4438e+00  2.8443e+01
6.4591e+00  2.8479e+01
6.4745e+00  2.8134e+01
6.4899e+00  2.7872e+01
6.5052e+00  2.7889e+01
6.5206e+00  2.7840e+01
6.5360e+00  2.7801e+01
6.5513e+00  2.7876e+01
6.5667e+00  2.7754e+01
6.5820e+00  2.7930e+01
6.5974e+00  2.7662e+01
6.6127e+00  2.7644e+01
6.6281e+00  2.7651e+01
6.6434e+00  2.7792e+01
6.6588e+00  2.7908e+01
6.6741e+00  2.7766e+01
6.6895e+00  2.8198e+01
6.7048e+00  2.8857e+01
6.7202e+00  2.9570e+01
6.7355e+00  2.8431e+01
6.7509e+00  2.8531e+01
6.7662e+00  2.8055e+01
6.7816e+00  2.7628e+01
6.7969e+00  2.7782e+01
6.8123e+00  2.8451e+01
6.8276e+00  2.8821e+01
6.8429e+00  2.8163e+01
6.8583e+00  2.7718e+01
6.8736e+00  2.7521e+01
6.8890e+00  2.7780e+01
6.9043e+00  2.8014e+01
6.9196e+00  2.8581e+01
6.9350e+00  3.0850e+01
6.9503e+00  3.2867e+01
6.9656e+00  3.1304e+01
6.9810e+00  3.0057e+01
6.9963e+00  2.8755e+01
7.0116e+00  2.8130e+01
7.0270e+00  2.7722e+01
7.0423e+00  2.7372e+01
7.0576e+00  2.7416e+01
7.0729e+00  2.7458e+01
7.0883e+00  2.7533e+01
7.1036e+00  2.7532e+01
7.1189e+00  2.7645e+01
7.1342e+00  2.7440e+01
7.1496e+00  2.7416e+01
7.1649e+00  2.7564e+01
7.1802e+00  2.7487e+01
7.1955e+00  2.7439e+01
7.2108e+00  2.7270e+01
7.2261e+00  2.7152e+01
7.2415e+00  2.7230e+01
7.2568e+00  2.7395e+01
7.2721e+00  2.7651e+01
7.2874e+00  2.8766e+01
7.3027e+00  5.1670e+01
7.3180e+00  1.5008e+02
7.3333e+00  9.7375e+01
7.3486e+00  3.0884e+01
7.3640e+00  2.8003e+01
7.3793e+00  2.7489e+01
7.3946e+00  2.7383e+01
7.4099e+00  2.7143e+01
7.4252e+00  2.7327e+01
7.4405e+00  2.7276e+01
7.4558e+00  2.7624e+01
7.4711e+00  2.7670e+01
7.4864e+00  2.7608e+01
7.5017e+00  2.7282e+01
7.5170e+00  2.6975e+01
7.5323e+00  2.6787e+01
7.5476e+00  2.6678e+01
7.5629e+00  2.6860e+01
7.5781e+00  2.6963e+01
7.5934e+00  2.7070e+01
7.6087e+00  2.6998e+01
7.6240e+00  2.7226e+01
7.6393e+00  2.7431e+01
7.6546e+00  2.8041e+01
7.6699e+00  2.7908e+01
7.6852e+00  2.7581e+01
7.7005e+00  2.8303e+01
7.7157e+00  2.9918e+01
7.7310e+00  3.3598e+01
7.7463e+00  8.8363e+01
7.7616e+00  3.5819e+02
7.7769e+00  2.6033e+02
7.7921e+00  3.9797e+01
7.8074e+00  2.9815e+01
7.8227e+00  2.9064e+01
7.8380e+00  2.8411e+01
7.8532e+00  2.7381e+01
7.8685e+00  2.6997e+01
7.8838e+00  2.6665e+01
7.8991e+00  2.6644e+01
7.9143e+00  2.6527e+01
7.9296e+00  2.6488e+01
7.9449e+00  2.6596e+01
7.9601e+00  2.6517e+01
7.9754e+00  2.6589e+01
7.9907e+00  2.6863e+01
8.0059e+00  2.7416e+01
8.0212e+00  2.8403e+01
8.0364e+00  2.8221e+01
8.0517e+00  2.7085e+01
8.0670e+00  2.6711e+01
8.0822e+00  2.6662e+01
8.0975e+00  2.6766e+01
8.1127e+00  2.7040e+01
8.1280e+00  2.7548e+01
8.1432e+00  2.8385e+01
8.1585e+00  3.4978e+01
8.1737e+00  1.5547e+02
8.1890e+00  2.6675e+02
8.2042e+00  9.3106e+01
8.2195e+00  3.0032e+01
8.2347e+00  2.7689e+01
8.2500e+00  2.7014e+01
8.2652e+00  2.6681e+01
8.2805e+00  2.6442e+01
8.2957e+00  2.6161e+01
8.3110e+00  2.5956e+01
8.3262e+00  2.5870e+01
8.3414e+00  2.5911e+01
8.3567e+00  2.5954e+01
8.3719e+00  2.6188e+01
8.3871e+00  2.6191e+01
8.4024e+00  2.6036e+01
8.4176e+00  2.5902e+01
8.4328e+00  2.5977e+01
8.4481e+00  2.5920e+01
8.4633e+00  2.5989e+01
8.4785e+00  2.6039e+01
8.4938e+00  2.6466e+01
8.5090e+00  2.7066e+01
8.5242e+00  2.7107e+01
8.5394e+00  2.6926e+01
8.5547e+00  2.8706e+01
8.5699e+00  7.1861e+01
8.5851e+00  1.7435e+02
8.6003e+00  1.1384e+02
8.6155e+00  3.0435e+01
8.6308e+00  2.7097e+01
8.6460e+00  2.6434e+01
8.6612e+00  2.6212e+01
8.6764e+00  2.6273e+01
8.6916e+00  2.6052e+01
8.7068e+00  2.5866e+01
8.7220e+00  2.5903e+01
8.7372e+00  2.5912e+01
8.7524e+00  2.5672e+01
8.7676e+00  2.5490e+01
8.7829e+00  2.5390e+01
8.7981e+00  2.5362e+01
8.8133e+00  2.5309e+01
8.8285e+00  2.5463e+01
8.8437e+00  2.5573e+01
8.8589e+00  2.5869e+01
8.8741e+00  2.5619e+01
8.8893e+00  2.5698e+01
8.9045e+00  2.5689e+01
8.9196e+00  2.5569e+01
8.9348e+00  2.5943e+01
8.9500e+00  3.1230e+01
8.9652e+00  4.9451e+01
8.9804e+00  4.5248e+01
8.9956e+00  2.7375e+01
9.0108e+00  2.5584e+01
9.0260e+00  2.5395e+01
9.0412e+00  2.5222e+01
9.0563e+00  2.5301e+01
9.0715e+00  2.5155e+01
9.0867e+00  2.5065e+01
9.1019e+00  2.4823e+01
9.1171e+00  2.4859e+01
9.1322e+00  2.4943e+01
9.1474e+00  2.4884e+01
9.1626e+00  2.4888e+01
9.1778e+00  2.4908e+01
9.1929e+00  2.4792e+01
9.2081e+00  2.4858e+01
9.2233e+00  2.4889e+01
9.2384e+00  2.4992e+01
9.2536e+00  2.5056e+01
9.2688e+00  2.4987e+01
9.2839e+00  2.5269e+01
9.2991e+00  2.6007e+01
9.3143e+00  3.6393e+01
9.3294e+00  1.0033e+02
9.3446e+00  1.0330e+02
9.3597e+00  3.5911e+01
9.3749e+00  2.6106e+01
9.3900e+00  2.5881e+01
9.4052e+00  2.6023e+01
9.4204e+00  2.5778e+01
9.4355e+00  2.5241e+01
9.4507e+00  2.4752e+01
9.4658e+00  2.4517e+01
9.4809e+00  2.4349e+01
9.4961e+00  2.4360e+01
9.5112e+00  2.4304e+01
9.5264e+00  2.4306e+01
9.5415e+00  2.4374e+01
9.5567e+00  2.4381e+01
9.5718e+00  2.4606e+01
9.5869e+00  2.4503e+01
9.6021e+00  2.4737e+01
9.6172e+00  2.5005e+01
9.6324e+00  2.5435e+01
9.6475e+00  2.6281e+01
9.6626e+00  3.3859e+01
9.6777e+00  1.3848e+02
9.6929e+00  1.9509e+02
9.7080e+00  9.3379e+01
9.7231e+00  2.8500e+01
9.7383e+00  2.5679e+01
9.7534e+00  2.5125e+01
9.7685e+00  2.4779e+01
9.7836e+00  2.4794e+01
9.7987e+00  2.4732e+01
9.8139e+00  2.4808e+01
9.8290e+00  2.4957e+01
9.8441e+00  2.4956e+01
9.8592e+00  2.4737e+01
9.8743e+00  2.4533e+01
9.8894e+00  2.4326e+01
9.9045e+00  2.4356e+01
9.9197e+00  2.4212e+01
9.9348e+00  2.4340e+01
9.9499e+00  2.4325e+01
9.9650e+00  2.4297e+01
9.9801e+00  2.4222e+01
9.9952e+00  2.4175e+01
1.0010e+01  2.3943e+01
1.0025e+01  2.3981e+01
1.0040e+01  2.3717e+01
1.0056e+01  2.3886e+01
1.0071e+01  2.3796e+01
1.0086e+01  2.3774e+01
1.0101e+01  2.3827e+01
1.0116e+01  2.3793e+01
1.0131e+01  2.3850e+01
1.0146e+01  2.3840e+01
1.0161e+01  2.3932e+01
1.0176e+01  2.3953e+01
1.0191e+01  2.4032e+01
1.0206e+01  2.3972e+01
1.0222e+01  2.4123e+01
1.0237e+01  2.4322e+01
1.0252e+01  2.4325e+01
1.0267e+01  2.4116e+01
1.0282e+01  2.4170e+01
1.0297e+01  2.4244e+01
1.0312e+01  2.4535e+01
1.0327e+01  2.5231e+01
1.0342e+01  3.3148e+01
1.0357e+01  5.1416e+01
1.0372e+01  4.8205e+01
1.0387e+01  2.6858e+01
1.0402e+01  2.5052e+01
1.0418e+01  2.4706e+01
1.0433e+01  2.4547e+01
1.0448e+01  2.4396e+01
1.0463e+01  2.4311e+01
1.0478e+01  2.4201e+01
1.0493e+01  2.4176e+01
1.0508e+01  2.4254e+01
1.0523e+01  2.4115e+01
1.0538e+01  2.4208e+01
1.0553e+01  2.4547e+01
1.0568e+01  2.4543e+01
1.0583e+01  2.4822e+01
1.0598e+01  2.5362e+01
1.0613e+01  2.6273e+01
1.0628e+01  2.6999e+01
1.0643e+01  2.7664e+01
1.0658e+01  4.6087e+01
1.0673e+01  1.3425e+02
1.0688e+01  1.4287e+02
1.0703e+01  5.4477e+01
1.0718e+01  2.6703e+01
1.0734e+01  2.5250e+01
1.0749e+01  2.4915e+01
1.0764e+01  2.4551e+01
1.0779e+01  2.4653e+01
1.0794e+01  2.4518e+01
1.0809e+01  2.4360e+01
1.0824e+01  2.4389e+01
1.0839e+01  2.4411e+01
1.0854e+01  2.4355e+01
1.0869e+01  2.4441e+01
1.0884e+01  2.4473e+01
1.0899e+01  2.4525e+01
1.0914e+01  2.4720e+01
1.0929e+01  2.4727e+01
1.0944e+01  2.5146e+01
1.0959e+01  2.7235e+01
1.0974e+01  6.3542e+01
1.0989e+01  1.1851e+02
1.1004e+01  1.0705e+02
1.1019e+01  3.4395e+01
1.1034e+01  2.5709e+01
1.1049e+01  2.4872e+01
1.1064e+01  2.4803e+01
1.1079e+01  2.4515e+01
1.1094e+01  2.4322e+01
1.1109e+01  2.4352e+01
1.1124e+01  2.4308e+01
1.1139e+01  2.4280e+01
1.1154e+01  2.4136e+01
1.1169e+01  2.4165e+01
1.1184e+01  2.4369e+01
1.1199e+01  2.4199e+01
1.1214e+01  2.4274e+01
1.1229e+01  2.4228e+01
1.1244e+01  2.4594e+01
1.1258e+01  2.5139e+01
1.1273e+01  3.4965e+01
1.1288e+01  5.9423e+01
1.1303e+01  5.9541e+01
1.1318e+01  3.2719e+01
1.1333e+01  2.5441e+01
1.1348e+01  2.5128e+01
1.1363e+01  2.5114e+01
1.1378e+01  2.4710e+01
1.1393e+01  2.4519e+01
1.1408e+01  2.4495e+01
1.1423e+01  2.4356e+01
1.1438e+01  2.4308e+01
1.1453e+01  2.4479e+01
1.1468e+01  2.4160e+01
1.1483e+01  2.4389e+01
1.1498e+01  2.4364e+01
1.1512e+01  2.4580e+01
1.1527e+01  2.4516e+01
1.1542e+01  2.4794e+01
1.1557e+01  2.6524e+01
1.1572e+01  5.0418e+01
1.1587e+01  7.4929e+01
1.1602e+01  6.7776e+01
1.1617e+01  2.9870e+01
1.1632e+01  2.5191e+01
1.1647e+01  2.4820e+01
1.1661e+01  2.4735e+01
1.1676e+01  2.4866e+01
1.1691e+01  2.5003e+01
1.1706e+01  2.5062e+01
1.1721e+01  2.5090e+01
1.1736e+01  2.4956e+01
1.1751e+01  2.4833e+01
1.1766e+01  2.4786e+01
1.1780e+01  2.4883e+01
1.1795e+01  2.5162e+01
1.1810e+01  2.5323e+01
1.1825e+01  2.5615e+01
1.1840e+01  2.7313e+01
1.1855e+01  5.2033e+01
1.1870e+01  1.1380e+02
1.1884e+01  1.1771e+02
1.1899e+01  5.5802e+01
1.1914e+01  2.7453e+01
1.1929e+01  2.5786e+01
1.1944e+01  2.5229e+01
1.1959e+01  2.4960e+01
1.1973e+01  2.4942e+01
1.1988e+01  2.4870e+01
1.2003e+01  2.4893e+01
1.2018e+01  2.4674e+01
1.2033e+01  2.5095e+01
1.2048e+01  2.5341e+01
1.2062e+01  2.5315e+01
1.2077e+01  2.5031e+01
1.2092e+01  2.4879e+01
1.2107e+01  2.5115e+01
1.2122e+01  2.5947e+01
1.2136e+01  3.9143e+01
1.2151e+01  6.5945e+01
1.2166e+01  6.6757e+01
1.2181e+01  3.8701e+01
1.2195e+01  2.5810e+01
1.2210e+01  2.5180e+01
1.2225e+01  2.4994e+01
1.2240e+01  2.4805e+01
1.2255e+01  2.4534e+01
1.2269e+01  2.4460e+01
1.2284e+01  2.4440e+01
1.2299e+01  2.4486e+01
1.2314e+01  2.4353e+01
1.2328e+01  2.4263e+01
1.2343e+01  2.4436e+01
1.2358e+01  2.4641e+01
1.2372e+01  2.4696e+01
1.2387e+01  2.4559e+01
1.2402e+01  2.4728e+01
1.2417e+01  2.4571e+01
1.2431e+01  2.4441e+01
1.2446e+01  2.4339e+01
1.2461e+01  2.4411e+01
1.2476e+01  2.4554e+01
1.2490e+01  2.4313e+01
1.2505e+01  2.4549e+01
1.2520e+01  2.4316e+01
1.2534e+01  2.4501e+01
1.2549e+01  2.4382e+01
1.2564e+01  2.4442e+01
1.2578e+01  2.4365e+01
1.2593e+01  2.4440e+01
1.2608e+01  2.4368e+01
1.2622e+01  2.4445e+01
1.2637e+01  2.4509e+01
1.2652e+01  2.4865e+01
1.2666e+01  2.5542e+01
1.2681e+01  3.4849e+01
1.2696e+01  4.6850e+01
1.2710e+01  4.7181e+01
1.2725e+01  3.2279e+01
1.2740e+01  2.5571e+01
1.2754e+01  2.5240e+01
1.2769e+01  2.4791e+01
1.2784e+01  2.4691e+01
1.2798e+01  2.4875e+01
1.2813e+01  2.4794e+01
1.2828e+01  2.4685e+01
1.2842e+01  2.4678e+01
1.2857e+01  2.4760e+01
1.2871e+01  2.4835e+01
1.2886e+01  2.4935e+01
1.2901e+01  2.4835e+01
1.2915e+01  2.5126e+01
1.2930e+01  2.5764e+01
1.2944e+01  3.4885e+01
1.2959e+01  4.6993e+01
1.2974e+01  4.7204e+01
1.2988e+01  3.3262e+01
1.3003e+01  2.6071e+01
1.3017e+01  2.5848e+01
1.3032e+01  2.5730e+01
1.3046e+01  2.5564e+01
1.3061e+01  2.5516e+01
1.3076e+01  2.5166e+01
1.3090e+01  2.5268e+01
1.3105e+01  2.5136e+01
1.3119e+01  2.5276e+01
1.3134e+01  2.5449e+01
1.3148e+01  2.5518e+01
1.3163e+01  2.5766e+01
1.3177e+01  2.6406e+01
1.3192e+01  3.2275e+01
1.3206e+01  8.1608e+01
1.3221e+01  1.0990e+02
1.3235e+01  1.0330e+02
1.3250e+01  4.3111e+01
1.3264e+01  2.7093e+01
1.3279e+01  2.6097e+01
1.3293e+01  2.5926e+01
1.3308e+01  2.5702e+01
1.3322e+01  2.5720e+01
1.3337e+01  2.5782e+01
1.3351e+01  2.5713e+01
1.3366e+01  2.5481e+01
1.3380e+01  2.5468e+01
1.3395e+01  2.5489e+01
1.3409e+01  2.5530e+01
1.3424e+01  2.5679e+01
1.3438e+01  2.6512e+01
1.3453e+01  3.6978e+01
1.3467e+01  5.9541e+01
1.3482e+01  6.2468e+01
1.3496e+01  4.8087e+01
1.3511e+01  2.7474e+01
1.3525e+01  2.5787e+01
1.3539e+01  2.5344e+01
1.3554e+01  2.5061e+01
1.3568e+01  2.5241e+01
1.3583e+01  2.5239e+01
1.3597e+01  2.5258e+01
1.3612e+01  2.5465e+01
1.3626e+01  2.5413e+01
1.3640e+01  2.5461e+01
1.3655e+01  2.5426e+01
1.3669e+01  2.5327e+01
1.3684e+01  2.5320e+01
1.3698e+01  2.5387e+01
1.3712e+01  2.5506e+01
1.3727e+01  2.5463e+01
1.3741e+01  2.5389e+01
1.3755e+01  2.5559e+01
1.3770e+01  2.5496e+01
1.3784e+01  2.5611e+01
1.3799e+01  2.5535e+01
1.3813e+01  2.5590e+01
1.3827e+01  2.5826e+01
1.3842e+01  2.5900e+01
1.3856e+01  2.5794e+01
1.3870e+01  2.5799e+01
1.3885e+01  2.6183e+01
1.3899e+01  2.6198e+01
1.3913e+01  2.6854e+01
1.3928e+01  2.8127e+01
1.3942e+01  4.0633e+01
1.3956e+01  7.9383e+01
1.3971e+01  8.9166e+01
1.3985e+01  7.7309e+01
1.3999e+01  3.4772e+01
1.4014e+01  2.7079e+01
1.4028e+01  2.6517e+01
1.4042e+01  2.6358e+01
1.4056e+01  2.6020e+01
1.4071e+01  2.6059e+01
1.4085e+01  2.6021e+01
1.4099e+01  2.6270e+01
1.4114e+01  2.6002e+01
1.4128e+01  2.6212e+01
1.4142e+01  2.6204e+01
1.4156e+01  2.6367e+01
1.4171e+01  2.6976e+01
1.4185e+01  3.4162e+01
1.4199e+01  4.6846e+01
1.4213e+01  4.9103e+01
1.4228e+01  4.2661e+01
1.4242e+01  2.8721e+01
1.4256e+01  2.6293e+01
1.4270e+01  2.6212e+01
1.4285e+01  2.6339e+01
1.4299e+01  2.6295e+01
1.4313e+01  2.5927e+01
1.4327e+01  2.6145e+01
1.4342e+01  2.6102e+01
1.4356e+01  2.6051e+01
1.4370e+01  2.6146e+01
1.4384e+01  2.6170e+01
1.4398e+01  2.6022e+01
1.4413e+01  2.6251e+01
1.4427e+01  2.6221e+01
1.4441e+01  2.6484e+01
1.4455e+01  2.6490e+01
1.4469e+01  2.6529e+01
1.4483e+01  2.6598e+01
1.4498e+01  2.7072e+01
1.4512e+01  2.6953e+01
1.4526e+01  2.6649e+01
1.4540e+01  2.6627e+01
1.4554e+01  2.6482e+01
1.4568e+01  2.6405e+01
1.4582e+01  2.6259e+01
1.4597e+01  2.6397e+01
1.4611e+01  2.6271e+01
1.4625e+01  2.6406e+01
1.4639e+01  2.6799e+01
1.4653e+01  3.0492e+01
1.4667e+01  3.6881e+01
1.4681e+01  3.8005e+01
1.4695e+01  3.5181e+01
1.4710e+01  2.8037e+01
1.4724e+01  2.6597e+01
1.4738e+01  2.6683e+01
1.4752e+01  2.6148e+01
1.4766e+01  2.6556e+01
1.4780e+01  2.6445e+01
1.4794e+01  2.6338e+01
1.4808e+01  2.6764e+01
1.4822e+01  2.6687e+01
1.4836e+01  2.6827e+01
1.4850e+01  2.7162e+01
1.4865e+01  2.7534e+01
1.4879e+01  3.4593e+01
1.4893e+01  5.8929e+01
1.4907e+01  6.7363e+01
1.4921e+01  6.3352e+01
1.4935e+01  3.8574e+01
1.4949e+01  2.8640e+01
1.4963e+01  2.6796e+01
1.4977e+01  2.6731e+01
1.4991e+01  2.6429e+01
1.5005e+01  2.6688e+01
1.5019e+01  2.6627e+01
1.5033e+01  2.6283e+01
1.5047e+01  2.7048e+01
1.5061e+01  2.7035e+01
1.5075e+01  2.6313e+01
1.5089e+01  2.7711e+01
1.5103e+01  3.2924e+01
1.5117e+01  5.5685e+01
1.5131e+01  6.3904e+01
1.5145e+01  6.4024e+01
1.5159e+01  4.2697e+01
1.5173e+01  2.7634e+01
1.5187e+01  2.6653e+01
1.5201e+01  2.6532e+01
1.5215e+01  2.5483e+01
1.5229e+01  2.6063e+01
1.5243e+01  2.5861e+01
1.5257e+01  2.5548e+01
1.5271e+01  2.6402e+01
1.5284e+01  2.7475e+01
1.5298e+01  2.6481e+01
1.5312e+01  2.7485e+01
1.5326e+01  3.0638e+01
1.5340e+01  5.1902e+01
1.5354e+01  0.0000e+00
1.5368e+01  0.0000e+00
1.5382e+01  0.0000e+00
1.5396e+01  0.0000e+00
1.5410e+01  0.0000e+00
1.5424e+01  0.0000e+00
1.5438e+01  0.0000e+00
1.5489e+01  0.0000e+00

# 2Theta    Intensity
4.9787e-03  0.0000e+00
1.4975e-02  1.2857e+00
2.6940e-02  1.4286e-01
3.8933e-02  6.8421e-01
5.0936e-02  1.0000e+00
6.2943e-02  7.0000e-01
7.4953e-02  8.2353e-01
8.6964e-02  1.0000e+00
9.8976e-02  1.0000e+00
1.1099e-01  1.0164e+00
1.2300e-01  8.9063e-01
1.3502e-01  1.0588e+00
1.4703e-01  1.1667e+00
1.5905e-01  1.0649e+00
1.7106e-01  1.3226e+00
1.8308e-01  1.1959e+00
1.9509e-01  1.2941e+00
2.0711e-01  1.3535e+00
2.1912e-01  1.5044e+00
2.3114e-01  1.5630e+00
2.4315e-01  1.7462e+00
2.5517e-01  1.7676e+00
2.6719e-01  1.7971e+00
2.7920e-01  2.0426e+00
2.9122e-01  1.8897e+00
3.0323e-01  2.0795e+00
3.1525e-01  2.3059e+00
3.2726e-01  2.0814e+00
3.3928e-01  2.2347e+00
3.5130e-01  2.3673e+00
3.6331e-01  2.4415e+00
3.7533e-01  2.4849e+00
3.8735e-01  2.6001e+00
3.9936e-01  2.6927e+00
4.1138e-01  2.6494e+00
4.2339e-01  2.9724e+00
4.3541e-01  2.8840e+00
4.4743e-01  3.0992e+00
4.5944e-01  3.1241e+00
4.7146e-01  3.3587e+00
4.8348e-01  3.4124e+00
4.9549e-01  3.4660e+00
5.0751e-01  3.7025e+00
5.1952e-01  4.0001e+00
5.3154e-01  4.3009e+00
5.4356e-01  4.7737e+00
5.5557e-01  4.8619e+00
5.6759e-01  5.3752e+00
5.7961e-01  5.2585e+00
5.9162e-01  5.8970e+00
6.0364e-01  6.1608e+00
6.1565e-01  6.1366e+00
6.2767e-01  6.3917e+00
6.3969e-01  6.3286e+00
6.5170e-01  6.7670e+00
6.6372e-01  6.8927e+00
6.7574e-01  7.0672e+00
6.8775e-01  7.3620e+00
6.9977e-01  7.2704e+00
7.1179e-01  7.6306e+00
7.2380e-01  7.6531e+00
7.3582e-01  7.8417e+00
7.4784e-01  8.2841e+00
7.5985e-01  8.2194e+00
7.7187e-01  8.5857e+00
7.8388e-01  8.4584e+00
7.9590e-01  8.8201e+00
8.0792e-01  9.0216e+00
8.1993e-01  9.3449e+00
8.3195e-01  9.5358e+00
8.4396e-01  9.7770e+00
8.5598e-01  9.7072e+00
8.6800e-01  9.7813e+00
8.8001e-01  1.0145e+01
8.9203e-01  1.0466e+01
9.0405e-01  1.0301e+01
9.1606e-01  1.0560e+01
9.2808e-01  1.0727e+01
9.4009e-01  1.0696e+01
9.5211e-01  1.1107e+01
9.6412e-01  1.1439e+01
9.7614e-01  1.2190e+01
9.8816e-01  1.2143e+01
1.0002e+00  1.2188e+01
1.0122e+00  1.2779e+01
1.0242e+00  1.2847e+01
1.0362e+00  1.3122e+01
1.0482e+00  1.3361e+01
1.0602e+00  1.3393e+01
1.0723e+00  1.3367e+01
1.0843e+00  1.3513e+01
1.0963e+00  1.3556e+01
1.1083e+00  1.3630e+01
1.1203e+00  1.3562e+01
1.1323e+00  1.3738e+01
1.1444e+00  1.3691e+01
1.1564e+00  1.3682e+01
1.1684e+00  1.3808e+01
1.1804e+00  1.3623e+01
1.1924e+00  1.3872e+01
1.2044e+00  1.4033e+01
1.2164e+00  1.3891e+01
1.2285e+00  1.3957e+01
1.2405e+00  1.3641e+01
1.2525e+00  1.4033e+01
1.2645e+00  1.3928e+01
1.2765e+00  1.4010e+01
1.2885e+00  1.4040e+01
1.3005e+00  1.3680e+01
1.3126e+00  1.3924e+01
1.3246e+00  1.4008e+01
1.3366e+00  1.4034e+01
1.3486e+00  1.4134e+01
1.3606e+00  1.4036e+01
1.3726e+00  1.4058e+01
1.3846e+00  1.4005e+01
1.3967e+00  1.4211e+01
1.4087e+00  1.4054e+01
1.4207e+00  1.4216e+01
1.4327e+00  1.4083e+01
1.4447e+00  1.4051e+01
1.4567e+00  1.4179e+01
1.4687e+00  1.3982e+01
1.4807e+00  1.4163e+01
1.4928e+00  1.4113e+01
1.5048e+00  1.4062e+01
1.5168e+00  1.4233e+01
1.5288e+00  1.4081e+01
1.5408e+00  1.4185e+01
1.5528e+00  1.4220e+01
1.5648e+00  1.4198e+01
1.5769e+00  1.4268e+01
1.5889e+00  1.4234e+01
1.6009e+00  1.4223e+01
1.6129e+00  1.4167e+01
1.6249e+00  1.4220e+01
1.6369e+00  1.4242e+01
1.6489e+00  1.4246e+01
1.6609e+00  1.4256e+01
1.6729e+00  1.4185e+01
1.6850e+00  1.4277e+01
1.6970e+00  1.4250e+01
1.7090e+00  1.4169e+01
1.7210e+00  1.4239e+01
1.7330e+00  1.4253e+01
1.7450e+00  1.4268e+01
1.7570e+00  1.4325e+01
1.7690e+00  1.4260e+01
1.7810e+00  1.4230e+01
1.7931e+00  1.4231e+01
1.8051e+00  1.4242e+01
1.8171e+00  1.4207e+01
1.8291e+00  1.4206e+01
1.8411e+00  1.4311e+01
1.8531e+00  1.4196e+01
1.8651e+00  1.4214e+01
1.8771e+00  1.4118e+01
1.8891e+00  1.4197e+01
1.9011e+00  1.4183e+01
1.9132e+00  1.4161e+01
1.9252e+00  1.4150e+01
1.9372e+00  1.4083e+01
1.9492e+00  1.4081e+01
1.9612e+00  1.4112e+01
1.9732e+00  1.4046e+01
1.9852e+00  1.4065e+01
1.9972e+00  1.4037e+01
2.0092e+00  1.3983e+01
2.0212e+00  1.3916e+01
2.0332e+00  1.3967e+01
2.0453e+00  1.3973e+01
2.0573e+00  1.3938e+01
2.0693e+00  1.4008e+01
2.0813e+00  1.3902e+01
2.0933e+00  1.3903e+01
2.1053e+00  1.3855e+01
2.1173e+00  1.3818e+01
2.1293e+00  1.3891e+01
2.1413e+00  1.3842e+01
2.1533e+00  1.3742e+01
2.1653e+00  1.3773e+01
2.1773e+00  1.3847e+01
2.1893e+00  1.3800e+01
2.2013e+00  1.3703e+01
2.2133e+00  1.3705e+01
2.2254e+00  1.3753e+01
2.2374e+00  1.3679e+01
2.2494e+00  1.3704e+01
2.2614e+00  1.3646e+01
2.2734e+00  1.3650e+01
2.2854e+00  1.3679e+01
2.2974e+00  1.3650e+01
2.3094e+00  1.3591e+01
2.3214e+00  1.3604e+01
2.3334e+00  1.3631e+01
2.3454e+00  1.3634e+01
2.3574e+00  1.3631e+01
2.3694e+00  1.3552e+01
2.3814e+00  1.3559e+01
2.3934e+00  1.3546e+01
2.4054e+00  1.3594e+01
2.4174e+00  1.3578e+01
2.4294e+00  1.3502e+01
2.4414e+00  1.3554e+01
2.4534e+00  1.3446e+01
2.4654e+00  1.3557e+01
2.4774e+00  1.3542e+01
2.4894e+00  1.3426e+01
2.5014e+00  1.3523e+01
2.5134e+00  1.3462e+01
2.5254e+00  1.3467e+01
2.5374e+00  1.3512e+01
2.5494e+00  1.3469e+01
2.5614e+00  1.3422e+01
2.5734e+00  1.3410e+01
2.5854e+00  1.3436e+01
2.5974e+00  1.3448e+01
2.6094e+00  1.3411e+01
2.6214e+00  1.3432e+01
2.6335e+00  1.3357e+01
2.6455e+00  1.3412e+01
2.6575e+00  1.3384e+01
2.6695e+00  1.3384e+01
2.6814e+00  1.3381e+01
2.6934e+00  1.3360e+01
2.7054e+00  1.3405e+01
2.7174e+00  1.3401e+01
2.7294e+00  1.3341e+01
2.7414e+00  1.3397e+01
2.7534e+00  1.3378e+01
2.7654e+00  1.3387e+01
2.7774e+00  1.3377e+01
2.7894e+00  1.3350e+01
2.8014e+00  1.3372e+01
2.8134e+00  1.3396e+01
2.8254e+00  1.3337e+01
2.8374e+00  1.3330e+01
2.8494e+00  1.3357e+01
2.8614e+00  1.3338e+01
2.8734e+00  1.3363e+01
2.8854e+00  1.3406e+01
2.8974e+00  1.3388e+01
2.9094e+00  1.3444e+01
2.9214e+00  1.3380e+01
2.9334e+00  1.3426e+01
2.9454e+00  1.3424e+01
2.9574e+00  1.3371e+01
2.9694e+00  1.3387e+01
2.9814e+00  1.3368e+01
2.9934e+00  1.3385e+01
3.0054e+00  1.3393e+01
3.0173e+00  1.3348e+01
3.0293e+00  1.3394e+01
3.0413e+00  1.3371e+01
3.0533e+00  1.3398e+01
3.0653e+00  1.3347e+01
3.0773e+00  1.3349e+01
3.0893e+00  1.3408e+01
3.1013e+00  1.3390e+01
3.1133e+00  1.3490e+01
3.1253e+00  1.3555e+01
3.1373e+00  1.3545e+01
3.1493e+00  1.3620e+01
3.1612e+00  1.3768e+01
3.1732e+00  1.3769e+01
3.1852e+00  1.4011e+01
3.1972e+00  1.4262e+01
3.2092e+00  1.4760e+01
3.2212e+00  1.5991e+01
3.2332e+00  2.1341e+01
3.2452e+00  5.0993e+01
3.2572e+00  1.7064e+02
3.2692e+00  2.5883e+02
3.2811e+00  1.8023e+02
3.2931e+00  1.0016e+02
3.3051e+00  4.2940e+01
3.3171e+00  2.1280e+01
3.3291e+00  1.6051e+01
3.3411e+00  1.4447e+01
3.3531e+00  1.3954e+01
3.3651e+00  1.3672e+01
3.3770e+00  1.3570e+01
3.3890e+00  1.3332e+01
3.4010e+00  1.3172e+01
3.4130e+00  1.3152e+01
3.4250e+00  1.3076e+01
3.4370e+00  1.3033e+01
3.4490e+00  1.2986e+01
3.4609e+00  1.2898e+01
3.4729e+00  1.2857e+01
3.4849e+00  1.2841e+01
3.4969e+00  1.2756e+01
3.5089e+00  1.2789e+01
3.5209e+00  1.2751e+01
3.5328e+00  1.2698e+01
3.5448e+00  1.2703e+01
3.5568e+00  1.2708e+01
3.5688e+00  1.2680e+01
3.5808e+00  1.2591e+01
3.5928e+00  1.2633e+01
3.6047e+00  1.2593e+01
3.6167e+00  1.2589e+01
3.6287e+00  1.2523e+01
3.6407e+00  1.2442e+01
3.6527e+00  1.2475e+01
3.6646e+00  1.2412e+01
3.6766e+00  1.2438e+01
3.6886e+00  1.2484e+01
3.7006e+00  1.2358e+01
3.7126e+00  1.2351e+01
3.7245e+00  1.2345e+01
3.7365e+00  1.2347e+01
3.7485e+00  1.2391e+01
3.7605e+00  1.2372e+01
3.7724e+00  1.2396e+01
3.7844e+00  1.2350e+01
3.7964e+00  1.2390e+01
3.8084e+00  1.2408e+01
3.8204e+00  1.2355e+01
3.8323e+00  1.2363e+01
3.8443e+00  1.2321e+01
3.8563e+00  1.2271e+01
3.8683e+00  1.2271e+01
3.8802e+00  1.2272e+01
3.8922e+00  1.2254e+01
3.9042e+00  1.2268e+01
3.9162e+00  1.2262e+01
3.9281e+00  1.2274e+01
3.9401e+00  1.2260e+01
3.9521e+00  1.2234e+01
3.9640e+00  1.2243e+01
3.9760e+00  1.2231e+01
3.9880e+00  1.2250e+01
4.0000e+00  1.2233e+01
4.0119e+00  1.2199e+01
4.0239e+00  1.2248e+01
4.0359e+00  1.2210e+01
4.0479e+00  1.2252e+01
4.0598e+00  1.2238e+01
4.0718e+00  1.2213e+01
4.0838e+00  1.2233e+01
4.0957e+00  1.2187e+01
4.1077e+00  1.2186e+01
4.1197e+00  1.2176e+01
4.1316e+00  1.2209e+01
4.1436e+00  1.2147e+01
4.1556e+00  1.2200e+01
4.1675e+00  1.2141e+01
4.1795e+00  1.2177e+01
4.1915e+00  1.2168e+01
4.2034e+00  1.2164e+01
4.2154e+00  1.2165e+01
4.2274e+00  1.2169e+01
4.2393e+00  1.2200e+01
4.2513e+00  1.2174e+01
4.2633e+00  1.2157e+01
4.2752e+00  1.2165e+01
4.2872e+00  1.2216e+01
4.2992e+00  1.2161e+01
4.3111e+00  1.2168e+01
4.3231e+00  1.2150e+01
4.3351e+00  1.2200e+01
4.3470e+00  1.2235e+01
4.3590e+00  1.2230e+01
4.3709e+00  1.2276e+01
4.3829e+00  1.2282e+01
4.3949e+00  1.2339e+01
4.4068e+00  1.2311e+01
4.4188e+00  1.2372e+01
4.4307e+00  1.2388e+01
4.4427e+00  1.2445e+01
4.4546e+00  1.2587e+01
4.4666e+00  1.2696e+01
4.4785e+00  1.2711e+01
4.4905e+00  1.2903e+01
4.5024e+00  1.3036e+01
4.5144e+00  1.3274e+01
4.5263e+00  1.3495e+01
4.5383e+00  1.3936e+01
4.5502e+00  1.4515e+01
4.5621e+00  1.5504e+01
4.5741e+00  1.7942e+01
4.5860e+00  2.5869e+01
4.5980e+00  6.6742e+01
4.6099e+00  2.4056e+02
4.6218e+00  4.1928e+02
4.6338e+00  3.1054e+02
4.6457e+00  2.0053e+02
4.6577e+00  9.8713e+01
4.6696e+00  4.3883e+01
4.6815e+00  2.3078e+01
4.6935e+00  1.7139e+01
4.7054e+00  1.4842e+01
4.7173e+00  1.4064e+01
4.7293e+00  1.3566e+01
4.7412e+00  1.3140e+01
4.7531e+00  1.2895e+01
4.7651e+00  1.2699e+01
4.7770e+00  1.2646e+01
4.7890e+00  1.2399e+01
4.8009e+00  1.2261e+01
4.8128e+00  1.2293e+01
4.8247e+00  1.2144e+01
4.8367e+00  1.2044e+01
4.8486e+00  1.2017e+01
4.8605e+00  1.1967e+01
4.8725e+00  1.1962e+01
4.8844e+00  1.1911e+01
4.8963e+00  1.1852e+01
4.9083e+00  1.1895e+01
4.9202e+00  1.1874e+01
4.9321e+00  1.1872e+01
4.9441e+00  1.1816e+01
4.9560e+00  1.1784e+01
4.9679e+00  1.1666e+01
4.9798e+00  1.1754e+01
4.9918e+00  1.1742e+01
5.0037e+00  1.1699e+01
5.0156e+00  1.1660e+01
5.0275e+00  1.1704e+01
5.0395e+00  1.1642e+01
5.0514e+00  1.1627e+01
5.0633e+00  1.1679e+01
5.0752e+00  1.1601e+01
5.0872e+00  1.1483e+01
5.0991e+00  1.1514e+01
5.1110e+00  1.1573e+01
5.1229e+00  1.1656e+01
5.1348e+00  1.1567e+01
5.1468e+00  1.1587e+01
5.1587e+00  1.1584e+01
5.1706e+00  1.1585e+01
5.1825e+00  1.1565e+01
5.1944e+00  1.1502e+01
5.2064e+00  1.1503e+01
5.2183e+00  1.1502e+01
5.2302e+00  1.1440e+01
5.2421e+00  1.1492e+01
5.2540e+00  1.1449e+01
5.2660e+00  1.1518e+01
5.2779e+00  1.1437e+01
5.2898e+00  1.1548e+01
5.3017e+00  1.1472e+01
5.3136e+00  1.1616e+01
5.3255e+00  1.1502e+01
5.3374e+00  1.1511e+01
5.3494e+00  1.1510e+01
5.3613e+00  1.1478e+01
5.3732e+00  1.1598e+01
5.3851e+00  1.1629e+01
5.3970e+00  1.1712e+01
5.4089e+00  1.1640e+01
5.4208e+00  1.1622e+01
5.4327e+00  1.1631e+01
5.4446e+00  1.1649e+01
5.4566e+00  1.1675e+01
5.4685e+00  1.1630e+01
5.4804e+00  1.1680e+01
5.4923e+00  1.1743e+01
5.5042e+00  1.1752e+01
5.5161e+00  1.1787e+01
5.5280e+00  1.1838e+01
5.5399e+00  1.1934e+01
5.5518e+00  1.2029e+01
5.5637e+00  1.2112e+01
5.5756e+00  1.2347e+01
5.5875e+00  1.2658e+01
5.5994e+00  1.3071e+01
5.6113e+00  1.4032e+01
5.6232e+00  1.6745e+01
5.6351e+00  2.9302e+01
5.6470e+00  8.2965e+01
5.6589e+00  1.7167e+02
5.6708e+00  1.4593e+02
5.6827e+00  9.9808e+01
5.6946e+00  6.0165e+01
5.7065e+00  3.3841e+01
5.7184e+00  2.0010e+01
5.7303e+00  1.5327e+01
5.7422e+00  1.3376e+01
5.7541e+00  1.2672e+01
5.7660e+00  1.2337e+01
5.7779e+00  1.2104e+01
5.7898e+00  1.1929e+01
5.8017e+00  1.1845e+01
5.8136e+00  1.1796e+01
5.8255e+00  1.1782e+01
5.8374e+00  1.1724e+01
5.8493e+00  1.1656e+01
5.8612e+00  1.1527e+01
5.8731e+00  1.1492e+01
5.8850e+00  1.1424e+01
5.8968e+00  1.1433e+01
5.9087e+00  1.1401e+01
5.9206e+00  1.1407e+01
5.9325e+00  1.1377e+01
5.9444e+00  1.1358e+01
5.9563e+00  1.1369e+01
5.9682e+00  1.1337e+01
5.9801e+00  1.1372e+01
5.9920e+00  1.1313e+01
6.0038e+00  1.1319e+01
6.0157e+00  1.1317e+01
6.0276e+00  1.1305e+01
6.0395e+00  1.1305e+01
6.0514e+00  1.1268e+01
6.0633e+00  1.1272e+01
6.0752e+00  1.1303e+01
6.0870e+00  1.1287e+01
6.0989e+00  1.1289e+01
6.1108e+00  1.1265e+01
6.1227e+00  1.1240e+01
6.1346e+00  1.1232e+01
6.1464e+00  1.1286e+01
6.1583e+00  1.1251e+01
6.1702e+00  1.1229e+01
6.1821e+00  1.1255e+01
6.1940e+00  1.1287e+01
6.2058e+00  1.1255e+01
6.2177e+00  1.1277e+01
6.2296e+00  1.1270e+01
6.2415e+00  1.1279e+01
6.2533e+00  1.1250e+01
6.2652e+00  1.1274e+01
6.2771e+00  1.1276e+01
6.2890e+00  1.1287e+01
6.3008e+00  1.1256e+01
6.3127e+00  1.1308e+01
6.3246e+00  1.1293e+01
6.3365e+00  1.1309e+01
6.3483e+00  1.1384e+01
6.3602e+00  1.1402e+01
6.3721e+00  1.1371e+01
6.3839e+00  1.1368e+01
6.3958e+00  1.1386e+01
6.4077e+00  1.1403e+01
6.4195e+00  1.1473e+01
6.4314e+00  1.1479e+01
6.4433e+00  1.1541e+01
6.4551e+00  1.1700e+01
6.4670e+00  1.1826e+01
6.4789e+00  1.2092e+01
6.4907e+00  1.2675e+01
6.5026e+00  1.4507e+01
6.5145e+00  2.4052e+01
6.5263e+00  6.7569e+01
6.5382e+00  1.1051e+02
6.5501e+00  7.9059e+01
6.5619e+00  5.9518e+01
6.5738e+00  3.6196e+01
6.5856e+00  2.1375e+01
6.5975e+00  1.5365e+01
6.6094e+00  1.3205e+01
6.6212e+00  1.2272e+01
6.6331e+00  1.1851e+01
6.6449e+00  1.1730e+01
6.6568e+00  1.1656e+01
6.6686e+00  1.1588e+01
6.6805e+00  1.1522e+01
6.6923e+00  1.1452e+01
6.7042e+00  1.1408e+01
6.7161e+00  1.1415e+01
6.7279e+00  1.1303e+01
6.7398e+00  1.1307e+01
6.7516e+00  1.1282e+01
6.7635e+00  1.1257e+01
6.7753e+00  1.1268e+01
6.7872e+00  1.1254e+01
6.7990e+00  1.1221e+01
6.8109e+00  1.1230e+01
6.8227e+00  1.1271e+01
6.8346e+00  1.1205e+01
6.8464e+00  1.1232e+01
6.8583e+00  1.1167e+01
6.8701e+00  1.1219e+01
6.8819e+00  1.1229e+01
6.8938e+00  1.1163e+01
6.9056e+00  1.1216e+01
6.9175e+00  1.1226e+01
6.9293e+00  1.1234e+01
6.9412e+00  1.1234e+01
6.9530e+00  1.1204e+01
6.9649e+00  1.1223e+01
6.9767e+00  1.1251e+01
6.9885e+00  1.1276e+01
7.0004e+00  1.1262e+01
7.0122e+00  1.1264e+01
7.0241e+00  1.1235e+01
7.0359e+00  1.1251e+01
7.0477e+00  1.1267e+01
7.0596e+00  1.1294e+01
7.0714e+00  1.1313e+01
7.0832e+00  1.1307e+01
7.0951e+00  1.1339e+01
7.1069e+00  1.1413e+01
7.1187e+00  1.1444e+01
7.1306e+00  1.1446e+01
7.1424e+00  1.1561e+01
7.1542e+00  1.1575e+01
7.1661e+00  1.1657e+01
7.1779e+00  1.1712e+01
7.1897e+00  1.1792e+01
7.2016e+00  1.1948e+01
7.2134e+00  1.2192e+01
7.2252e+00  1.2438e+01
7.2370e+00  1.2726e+01
7.2489e+00  1.3163e+01
7.2607e+00  1.4312e+01
7.2725e+00  1.7716e+01
7.2844e+00  3.2787e+01
7.2962e+00  9.8620e+01
7.3080e+00  2.0192e+02
7.3198e+00  1.7714e+02
7.3316e+00  1.2605e+02
7.3435e+00  8.7318e+01
7.3553e+00  4.9770e+01
7.3671e+00  2.7784e+01
7.3789e+00  1.8825e+01
7.3908e+00  1.4773e+01
7.4026e+00  1.3205e+01
7.4144e+00  1.2486e+01
7.4262e+00  1.2144e+01
7.4380e+00  1.1989e+01
7.4498e+00  1.1788e+01
7.4617e+00  1.1609e+01
7.4735e+00  1.1568e+01
7.4853e+00  1.1449e+01
7.4971e+00  1.1423e+01
7.5089e+00  1.1358e+01
7.5207e+00  1.1349e+01
7.5325e+00  1.1312e+01
7.5444e+00  1.1254e+01
7.5562e+00  1.1184e+01
7.5680e+00  1.1211e+01
7.5798e+00  1.1212e+01
7.5916e+00  1.1143e+01
7.6034e+00  1.1174e+01
7.6152e+00  1.1132e+01
7.6270e+00  1.1127e+01
7.6388e+00  1.1138e+01
7.6506e+00  1.1115e+01
7.6624e+00  1.1121e+01
7.6742e+00  1.1129e+01
7.6860e+00  1.1081e+01
7.6978e+00  1.1074e+01
7.7096e+00  1.1047e+01
7.7214e+00  1.1109e+01
7.7332e+00  1.1110e+01
7.7451e+00  1.1051e+01
7.7569e+00  1.1113e+01
7.7686e+00  1.1095e+01
7.7804e+00  1.1103e+01
7.7922e+00  1.1130e+01
7.8040e+00  1.1124e+01
7.8158e+00  1.1149e+01
7.8276e+00  1.1198e+01
7.8394e+00  1.1190e+01
7.8512e+00  1.1194e+01
7.8630e+00  1.1231e+01
7.8748e+00  1.1265e+01
7.8866e+00  1.1352e+01
7.8984e+00  1.1427e+01
7.9102e+00  1.1502e+01
7.9220e+00  1.1630e+01
7.9338e+00  1.1823e+01
7.9456e+00  1.2079e+01
7.9573e+00  1.2652e+01
7.9691e+00  1.4221e+01
7.9809e+00  2.0217e+01
7.9927e+00  4.6786e+01
8.0045e+00  1.0126e+02
8.0163e+00  1.0517e+02
8.0281e+00  7.5616e+01
8.0398e+00  5.4875e+01
8.0516e+00  3.6556e+01
8.0634e+00  2.3677e+01
8.0752e+00  1.6574e+01
8.0870e+00  1.3598e+01
8.0988e+00  1.2319e+01
8.1105e+00  1.1868e+01
8.1223e+00  1.1567e+01
8.1341e+00  1.1421e+01
8.1459e+00  1.1316e+01
8.1576e+00  1.1233e+01
8.1694e+00  1.1199e+01
8.1812e+00  1.1163e+01
8.1930e+00  1.1166e+01
8.2047e+00  1.1047e+01
8.2165e+00  1.1036e+01
8.2283e+00  1.1031e+01
8.2401e+00  1.1036e+01
8.2518e+00  1.1028e+01
8.2636e+00  1.0968e+01
8.2754e+00  1.0923e+01
8.2871e+00  1.0962e+01
8.2989e+00  1.0932e+01
8.3107e+00  1.0927e+01
8.3224e+00  1.0909e+01
8.3342e+00  1.0915e+01
8.3460e+00  1.0900e+01
8.3577e+00  1.0914e+01
8.3695e+00  1.0904e+01
8.3813e+00  1.0865e+01
8.3930e+00  1.0855e+01
8.4048e+00  1.0872e+01
8.4166e+00  1.0867e+01
8.4283e+00  1.0895e+01
8.4401e+00  1.0859e+01
8.4518e+00  1.0853e+01
8.4636e+00  1.0878e+01
8.4754e+00  1.0881e+01
8.4871e+00  1.0831e+01
8.4989e+00  1.0887e+01
[...]
7.7074e+00  8.6396e+01
7.7208e+00  1.9644e+02
7.7342e+00  1.8004e+02
7.7476e+00  6.3688e+01
7.7610e+00  1.8018e+01
7.7745e+00  1.0618e+01
7.7879e+00  9.2419e+00
7.8013e+00  8.8641e+00
7.8147e+00  8.6692e+00
7.8281e+00  8.6044e+00
7.8415e+00  8.4786e+00
7.8549e+00  8.4425e+00
7.8683e+00  8.3854e+00
7.8817e+00  8.3393e+00
7.8952e+00  8.3095e+00
7.9086e+00  8.2693e+00
7.9220e+00  8.2902e+00
7.9354e+00  8.3084e+00
7.9488e+00  8.2573e+00
7.9622e+00  8.2939e+00
7.9756e+00  8.2789e+00
7.9890e+00  8.2873e+00
8.0024e+00  8.3328e+00
8.0158e+00  8.3918e+00
8.0292e+00  8.3963e+00
8.0426e+00  8.5074e+00
8.0560e+00  8.5768e+00
8.0694e+00  8.7757e+00
8.0828e+00  9.0656e+00
8.0962e+00  1.0196e+01
8.1096e+00  1.6307e+01
8.1229e+00  5.0725e+01
8.1363e+00  1.3327e+02
8.1497e+00  1.5741e+02
8.1631e+00  6.7277e+01
8.1765e+00  1.9091e+01
8.1899e+00  1.0554e+01
8.2033e+00  9.0532e+00
8.2167e+00  8.7399e+00
8.2301e+00  8.5628e+00
8.2434e+00  8.4432e+00
8.2568e+00  8.4085e+00
8.2702e+00  8.3224e+00
8.2836e+00  8.3287e+00
8.2970e+00  8.2673e+00
8.3103e+00  8.1918e+00
8.3237e+00  8.2061e+00
8.3371e+00  8.2017e+00
8.3505e+00  8.1946e+00
8.3639e+00  8.1795e+00
8.3772e+00  8.1996e+00
8.3906e+00  8.2304e+00
8.4040e+00  8.1754e+00
8.4173e+00  8.2380e+00
8.4307e+00  8.2509e+00
8.4441e+00  8.2977e+00
8.4575e+00  8.3683e+00
8.4708e+00  8.4872e+00
8.4842e+00  8.7415e+00
8.4976e+00  9.8803e+00
8.5109e+00  1.6451e+01
8.5243e+00  4.6723e+01
8.5377e+00  9.4174e+01
8.5510e+00  8.6453e+01
8.5644e+00  3.5281e+01
8.5777e+00  1.2856e+01
8.5911e+00  9.2688e+00
8.6045e+00  8.5120e+00
8.6178e+00  8.3619e+00
8.6312e+00  8.2666e+00
8.6445e+00  8.1980e+00
8.6579e+00  8.1915e+00
8.6712e+00  8.1279e+00
8.6846e+00  8.0958e+00
8.6980e+00  8.0506e+00
8.7113e+00  8.0600e+00
8.7247e+00  8.0331e+00
8.7380e+00  8.0222e+00
8.7514e+00  7.9486e+00
8.7647e+00  8.0263e+00
8.7780e+00  7.9993e+00
8.7914e+00  7.9593e+00
8.8047e+00  7.9439e+00
8.8181e+00  8.0042e+00
8.8314e+00  8.0103e+00
8.8448e+00  8.0381e+00
8.8581e+00  8.0427e+00
8.8714e+00  8.1369e+00
8.8848e+00  8.5731e+00
8.8981e+00  1.0993e+01
8.9115e+00  1.7922e+01
8.9248e+00  2.2786e+01
8.9381e+00  1.6312e+01
8.9515e+00  9.8729e+00
8.9648e+00  8.3515e+00
8.9781e+00  8.0262e+00
8.9915e+00  8.0293e+00
9.0048e+00  8.0096e+00
9.0181e+00  8.0232e+00
9.0314e+00  7.9878e+00
9.0448e+00  7.9463e+00
9.0581e+00  7.9898e+00
9.0714e+00  7.9717e+00
9.0847e+00  7.9948e+00
9.0981e+00  7.9722e+00
9.1114e+00  8.0265e+00
9.1247e+00  8.0506e+00
9.1380e+00  8.0616e+00
9.1514e+00  8.0341e+00
9.1647e+00  8.0752e+00
9.1780e+00  8.0831e+00
9.1913e+00  8.1522e+00
9.2046e+00  8.1523e+00
9.2179e+00  8.1983e+00
9.2312e+00  8.4293e+00
9.2446e+00  9.2725e+00
9.2579e+00  1.4417e+01
9.2712e+00  3.4042e+01
9.2845e+00  6.1774e+01
9.2978e+00  5.3367e+01
9.3111e+00  2.2632e+01
9.3244e+00  1.0676e+01
9.3377e+00  8.6653e+00
9.3510e+00  8.3224e+00
9.3643e+00  8.2387e+00
9.3776e+00  8.1337e+00
9.3909e+00  8.1760e+00
9.4042e+00  8.1206e+00
9.4175e+00  8.1132e+00
9.4308e+00  8.1692e+00
9.4441e+00  8.1337e+00
9.4574e+00  8.1442e+00
9.4707e+00  8.1457e+00
9.4840e+00  8.1516e+00
9.4973e+00  8.1942e+00
9.5106e+00  8.2060e+00
9.5239e+00  8.2450e+00
9.5372e+00  8.3144e+00
9.5504e+00  8.4051e+00
9.5637e+00  8.5224e+00
9.5770e+00  8.7605e+00
9.5903e+00  9.6782e+00
9.6036e+00  1.4782e+01
9.6169e+00  4.0426e+01
9.6302e+00  9.9143e+01
9.6434e+00  1.2029e+02
9.6567e+00  6.6431e+01
9.6700e+00  2.0640e+01
9.6833e+00  1.0580e+01
9.6965e+00  8.9386e+00
9.7098e+00  8.5365e+00
9.7231e+00  8.4152e+00
9.7364e+00  8.3563e+00
9.7496e+00  8.2823e+00
9.7629e+00  8.2273e+00
9.7762e+00  8.2274e+00
9.7895e+00  8.1654e+00
9.8027e+00  8.1092e+00
9.8160e+00  8.0869e+00
9.8293e+00  8.1469e+00
9.8425e+00  8.1433e+00
9.8558e+00  8.1291e+00
9.8690e+00  8.1232e+00
9.8823e+00  8.1169e+00
9.8956e+00  8.0443e+00
9.9088e+00  8.1272e+00
9.9221e+00  8.0836e+00
9.9353e+00  8.0873e+00
9.9486e+00  8.0793e+00
9.9618e+00  8.1089e+00
9.9751e+00  8.0569e+00
9.9884e+00  8.0240e+00
1.0002e+01  8.0791e+00
1.0015e+01  8.0383e+00
1.0028e+01  8.0993e+00
1.0041e+01  8.1090e+00
1.0055e+01  8.0678e+00
1.0068e+01  8.1031e+00
1.0081e+01  8.1194e+00
1.0094e+01  8.1188e+00
1.0108e+01  8.0870e+00
1.0121e+01  8.0988e+00
1.0134e+01  8.0643e+00
1.0147e+01  8.1059e+00
1.0161e+01  8.1036e+00
1.0174e+01  8.1537e+00
1.0187e+01  8.1585e+00
1.0200e+01  8.1656e+00
1.0213e+01  8.1810e+00
1.0227e+01  8.1737e+00
1.0240e+01  8.2343e+00
1.0253e+01  8.3308e+00
1.0266e+01  8.7840e+00
1.0280e+01  1.1026e+01
1.0293e+01  1.8112e+01
1.0306e+01  2.5057e+01
1.0319e+01  2.0757e+01
1.0333e+01  1.1531e+01
1.0346e+01  8.8258e+00
1.0359e+01  8.4166e+00
1.0372e+01  8.3350e+00
1.0385e+01  8.3304e+00
1.0399e+01  8.3346e+00
1.0412e+01  8.2576e+00
1.0425e+01  8.2702e+00
1.0438e+01  8.2986e+00
1.0452e+01  8.3444e+00
1.0465e+01  8.3028e+00
1.0478e+01  8.3643e+00
1.0491e+01  8.3873e+00
1.0504e+01  8.4085e+00
1.0518e+01  8.5162e+00
1.0531e+01  8.4974e+00
1.0544e+01  8.5754e+00
1.0557e+01  8.6899e+00
1.0570e+01  9.1445e+00
1.0584e+01  1.1022e+01
1.0597e+01  2.1593e+01
1.0610e+01  5.7933e+01
1.0623e+01  9.3529e+01
1.0636e+01  7.5883e+01
1.0650e+01  2.7340e+01
1.0663e+01  1.1679e+01
1.0676e+01  9.2721e+00
1.0689e+01  8.7528e+00
1.0702e+01  8.6317e+00
1.0716e+01  8.6095e+00
1.0729e+01  8.5232e+00
1.0742e+01  8.4354e+00
1.0755e+01  8.4606e+00
1.0768e+01  8.5264e+00
1.0781e+01  8.3978e+00
1.0795e+01  8.4766e+00
1.0808e+01  8.4479e+00
1.0821e+01  8.4833e+00
1.0834e+01  8.4939e+00
1.0847e+01  8.5543e+00
1.0861e+01  8.6233e+00
1.0874e+01  8.8190e+00
1.0887e+01  9.5843e+00
1.0900e+01  1.3879e+01
1.0913e+01  3.3379e+01
1.0926e+01  6.7502e+01
1.0940e+01  7.4882e+01
1.0953e+01  3.8902e+01
1.0966e+01  1.4074e+01
1.0979e+01  9.5208e+00
1.0992e+01  8.7291e+00
1.1005e+01  8.5591e+00
1.1019e+01  8.4820e+00
1.1032e+01  8.4369e+00
1.1045e+01  8.3266e+00
1.1058e+01  8.3900e+00
1.1071e+01  8.3708e+00
1.1084e+01  8.3432e+00
1.1098e+01  8.3237e+00
1.1111e+01  8.3142e+00
1.1124e+01  8.3045e+00
1.1137e+01  8.3277e+00
1.1150e+01  8.2780e+00
1.1163e+01  8.3454e+00
1.1177e+01  8.4521e+00
1.1190e+01  8.8708e+00
1.1203e+01  1.1162e+01
1.1216e+01  2.0124e+01
1.1229e+01  3.2339e+01
1.1242e+01  3.1610e+01
1.1255e+01  1.7470e+01
1.1269e+01  9.8764e+00
1.1282e+01  8.6055e+00
1.1295e+01  8.4011e+00
1.1308e+01  8.3052e+00
1.1321e+01  8.2776e+00
1.1334e+01  8.2672e+00
1.1347e+01  8.2591e+00
1.1360e+01  8.2941e+00
1.1374e+01  8.2740e+00
1.1387e+01  8.2776e+00
1.1400e+01  8.3051e+00
1.1413e+01  8.2798e+00
1.1426e+01  8.3147e+00
1.1439e+01  8.3456e+00
1.1452e+01  8.3955e+00
1.1466e+01  8.4879e+00
1.1479e+01  8.8155e+00
1.1492e+01  1.0687e+01
1.1505e+01  1.8976e+01
1.1518e+01  3.5592e+01
1.1531e+01  4.2543e+01
1.1544e+01  2.7432e+01
1.1557e+01  1.2096e+01
1.1570e+01  9.0749e+00
1.1584e+01  8.5436e+00
1.1597e+01  8.3771e+00
1.1610e+01  8.3608e+00
1.1623e+01  8.3627e+00
1.1636e+01  8.3446e+00
1.1649e+01  8.3549e+00
1.1662e+01  8.3079e+00
1.1675e+01  8.4095e+00
1.1688e+01  8.3774e+00
1.1702e+01  8.4415e+00
1.1715e+01  8.5047e+00
1.1728e+01  8.5030e+00
1.1741e+01  8.6188e+00
1.1754e+01  8.8528e+00
1.1767e+01  9.7521e+00
1.1780e+01  1.5388e+01
1.1793e+01  3.7227e+01
1.1806e+01  6.9468e+01
1.1819e+01  7.4131e+01
1.1832e+01  3.7712e+01
1.1846e+01  1.3809e+01
1.1859e+01  9.5289e+00
1.1872e+01  8.7593e+00
1.1885e+01  8.5631e+00
1.1898e+01  8.4906e+00
1.1911e+01  8.4578e+00
1.1924e+01  8.4784e+00
1.1937e+01  8.4468e+00
1.1950e+01  8.3685e+00
1.1963e+01  8.3783e+00
1.1976e+01  8.3446e+00
1.1989e+01  8.3042e+00
1.2002e+01  8.3157e+00
1.2016e+01  8.4128e+00
1.2029e+01  8.4706e+00
1.2042e+01  8.7425e+00
1.2055e+01  1.0123e+01
1.2068e+01  1.7213e+01
1.2081e+01  3.2364e+01
1.2094e+01  3.8340e+01
1.2107e+01  2.8911e+01
1.2120e+01  1.2944e+01
1.2133e+01  9.0909e+00
1.2146e+01  8.5195e+00
1.2159e+01  8.2905e+00
1.2172e+01  8.2575e+00
1.2185e+01  8.2365e+00
1.2198e+01  8.2392e+00
1.2211e+01  8.1714e+00
1.2225e+01  8.1772e+00
1.2238e+01  8.1733e+00
1.2251e+01  8.1351e+00
1.2264e+01  8.1713e+00
1.2277e+01  8.1613e+00
1.2290e+01  8.1510e+00
1.2303e+01  8.1404e+00
1.2316e+01  8.1597e+00
1.2329e+01  8.1700e+00
1.2342e+01  8.0956e+00
1.2355e+01  8.1192e+00
1.2368e+01  8.1210e+00
1.2381e+01  8.1213e+00
1.2394e+01  8.1337e+00
1.2407e+01  8.0694e+00
1.2420e+01  8.1175e+00
1.2433e+01  8.1343e+00
1.2446e+01  8.1685e+00
1.2459e+01  8.1272e+00
1.2472e+01  8.1060e+00
1.2485e+01  8.0853e+00
1.2498e+01  8.1440e+00
1.2511e+01  8.1062e+00
1.2524e+01  8.1495e+00
1.2537e+01  8.2005e+00
1.2550e+01  8.1803e+00
1.2563e+01  8.2257e+00
1.2576e+01  8.3017e+00
1.2589e+01  8.7187e+00
1.2602e+01  1.0848e+01
1.2615e+01  1.7054e+01
1.2628e+01  2.3120e+01
1.2641e+01  2.2175e+01
1.2654e+01  1.3510e+01
1.2667e+01  9.1203e+00
1.2680e+01  8.4019e+00
1.2693e+01  8.2325e+00
1.2706e+01  8.2027e+00
1.2719e+01  8.1899e+00
1.2732e+01  8.1134e+00
1.2745e+01  8.1625e+00
1.2758e+01  8.1700e+00
1.2771e+01  8.1717e+00
1.2784e+01  8.1899e+00
1.2797e+01  8.2084e+00
1.2810e+01  8.2880e+00
1.2823e+01  8.2295e+00
1.2836e+01  8.3453e+00
1.2849e+01  8.6460e+00
1.2862e+01  1.0476e+01
1.2875e+01  1.6227e+01
1.2888e+01  2.3080e+01
1.2901e+01  2.3085e+01
1.2914e+01  1.4700e+01
1.2927e+01  9.4185e+00
1.2940e+01  8.5085e+00
1.2953e+01  8.3510e+00
1.2966e+01  8.3233e+00
1.2979e+01  8.3165e+00
1.2992e+01  8.3207e+00
1.3005e+01  8.3760e+00
1.3018e+01  8.3820e+00
1.3031e+01  8.3906e+00
1.3044e+01  8.4309e+00
1.3057e+01  8.4900e+00
1.3070e+01  8.5690e+00
1.3083e+01  8.6655e+00
1.3096e+01  9.0520e+00
1.3109e+01  1.1154e+01
1.3122e+01  2.1586e+01
1.3135e+01  4.7073e+01
1.3148e+01  6.7304e+01
1.3161e+01  5.9546e+01
1.3174e+01  2.6608e+01
1.3187e+01  1.1589e+01
1.3200e+01  9.1696e+00
1.3212e+01  8.6435e+00
1.3225e+01  8.5652e+00
1.3238e+01  8.4933e+00
1.3251e+01  8.4881e+00
1.3264e+01  8.4730e+00
1.3277e+01  8.4375e+00
1.3290e+01  8.3819e+00
1.3303e+01  8.3639e+00
1.3316e+01  8.4509e+00
1.3329e+01  8.4423e+00
1.3342e+01  8.5080e+00
1.3355e+01  8.9534e+00
1.3368e+01  1.1073e+01
1.3381e+01  1.9264e+01
1.3394e+01  3.0215e+01
1.3407e+01  3.3209e+01
1.3419e+01  2.3062e+01
1.3432e+01  1.1381e+01
1.3445e+01  8.9250e+00
1.3458e+01  8.4466e+00
1.3471e+01  8.3956e+00
1.3484e+01  8.3074e+00
1.3497e+01  8.2686e+00
1.3510e+01  8.3023e+00
1.3523e+01  8.2309e+00
1.3536e+01  8.2257e+00
1.3549e+01  8.2548e+00
1.3562e+01  8.2042e+00
1.3574e+01  8.1751e+00
1.3587e+01  8.2100e+00
1.3600e+01  8.2040e+00
1.3613e+01  8.2227e+00
1.3626e+01  8.1745e+00
1.3639e+01  8.1973e+00
1.3652e+01  8.1842e+00
1.3665e+01  8.2237e+00
1.3678e+01  8.2471e+00
1.3691e+01  8.1769e+00
1.3703e+01  8.2275e+00
1.3716e+01  8.1835e+00
1.3729e+01  8.2617e+00
1.3742e+01  8.2811e+00
1.3755e+01  8.2164e+00
1.3768e+01  8.3152e+00
1.3781e+01  8.2875e+00
1.3794e+01  8.3247e+00
1.3807e+01  8.3897e+00
1.3819e+01  8.4356e+00
1.3832e+01  8.6472e+00
1.3845e+01  9.5326e+00
1.3858e+01  1.4102e+01
1.3871e+01  2.8850e+01
1.3884e+01  4.6779e+01
1.3897e+01  4.9980e+01
1.3910e+01  3.2721e+01
1.3922e+01  1.3526e+01
1.3935e+01  9.2877e+00
1.3948e+01  8.5703e+00
1.3961e+01  8.3926e+00
1.3974e+01  8.3437e+00
1.3987e+01  8.3324e+00
1.4000e+01  8.3103e+00
1.4012e+01  8.3235e+00
1.4025e+01  8.2996e+00
1.4038e+01  8.2954e+00
1.4051e+01  8.2600e+00
1.4064e+01  8.3623e+00
1.4077e+01  8.4232e+00
1.4090e+01  9.1660e+00
1.4102e+01  1.1979e+01
1.4115e+01  1.8462e+01
1.4128e+01  2.3480e+01
1.4141e+01  2.1748e+01
1.4154e+01  1.3351e+01
1.4167e+01  9.1525e+00
1.4180e+01  8.3935e+00
1.4192e+01  8.2860e+00
1.4205e+01  8.2492e+00
1.4218e+01  8.2478e+00
1.4231e+01  8.2442e+00
1.4244e+01  8.2239e+00
1.4257e+01  8.2313e+00
1.4269e+01  8.1770e+00
1.4282e+01  8.1636e+00
1.4295e+01  8.1960e+00
1.4308e+01  8.1384e+00
1.4321e+01  8.1345e+00
1.4333e+01  8.1568e+00
1.4346e+01  8.1141e+00
1.4359e+01  8.1216e+00
1.4372e+01  8.2004e+00
1.4385e+01  8.1794e+00
1.4398e+01  8.1676e+00
1.4410e+01  8.1526e+00
1.4423e+01  8.1920e+00
1.4436e+01  8.1987e+00
1.4449e+01  8.1490e+00
1.4462e+01  8.1738e+00
1.4474e+01  8.1516e+00
1.4487e+01  8.2331e+00
1.4500e+01  8.2403e+00
1.4513e+01  8.2288e+00
1.4526e+01  8.2747e+00
1.4538e+01  8.3177e+00
1.4551e+01  8.5514e+00
1.4564e+01  9.4420e+00
1.4577e+01  1.1924e+01
1.4589e+01  1.4796e+01
1.4602e+01  1.5325e+01
1.4615e+01  1.2333e+01
1.4628e+01  9.1987e+00
1.4641e+01  8.4317e+00
1.4653e+01  8.3479e+00
1.4666e+01  8.2635e+00
1.4679e+01  8.3877e+00
1.4692e+01  8.2825e+00
1.4704e+01  8.3388e+00
1.4717e+01  8.3672e+00
1.4730e+01  8.4021e+00
1.4743e+01  8.4059e+00
1.4755e+01  8.5209e+00
1.4768e+01  8.7126e+00
1.4781e+01  9.6622e+00
1.4794e+01  1.4147e+01
1.4806e+01  2.4796e+01
1.4819e+01  3.3844e+01
1.4832e+01  3.4281e+01
1.4845e+01  2.1036e+01
1.4857e+01  1.0947e+01
1.4870e+01  8.9467e+00
1.4883e+01  8.5967e+00
1.4896e+01  8.5209e+00
1.4908e+01  8.5012e+00
1.4921e+01  8.4704e+00
1.4934e+01  8.4720e+00
1.4946e+01  8.4340e+00
1.4959e+01  8.5354e+00
1.4972e+01  8.4822e+00
1.4985e+01  8.5633e+00
1.4997e+01  8.9804e+00
1.5010e+01  1.0813e+01
1.5023e+01  1.7476e+01
1.5035e+01  2.8148e+01
1.5048e+01  3.3513e+01
1.5061e+01  2.9260e+01
1.5074e+01  1.5892e+01
1.5086e+01  9.8174e+00
1.5099e+01  8.6739e+00
1.5112e+01  8.6292e+00
1.5124e+01  8.4430e+00
1.5137e+01  8.4316e+00
1.5150e+01  8.4683e+00
1.5162e+01  8.4635e+00
1.5175e+01  8.5257e+00
1.5188e+01  8.4705e+00
1.5200e+01  8.5729e+00
1.5213e+01  8.6824e+00
1.5226e+01  9.3938e+00
1.5238e+01  1.2884e+01
1.5251e+01  2.0557e+01
1.5264e+01  2.6877e+01
1.5276e+01  2.7479e+01
1.5289e+01  1.8823e+01
1.5302e+01  1.0606e+01
1.5314e+01  8.8100e+00
1.5327e+01  8.4791e+00
1.5340e+01  8.4079e+00
1.5352e+01  8.3725e+00
1.5365e+01  8.3339e+00
1.5378e+01  8.3208e+00
1.5390e+01  8.3411e+00
1.5403e+01  8.3606e+00
1.5416e+01  8.3517e+00
1.5428e+01  8.4183e+00
1.5441e+01  8.7007e+00
1.5453e+01  1.0103e+01
1.5466e+01  1.3976e+01
1.5479e+01  1.8090e+01
1.5491e+01  1.9124e+01
1.5504e+01  1.5781e+01
1.5516e+01  1.0245e+01
1.5529e+01  8.6768e+00
1.5542e+01  8.2977e+00
1.5554e+01  8.2871e+00
1.5567e+01  8.2581e+00
1.5580e+01  8.2460e+00
1.5592e+01  8.2103e+00
1.5605e+01  8.2034e+00
1.5617e+01  8.2116e+00
1.5630e+01  8.1997e+00
1.5643e+01  8.2435e+00
1.5655e+01  8.4425e+00
1.5668e+01  9.1290e+00
1.5680e+01  1.1009e+01
1.5693e+01  1.3208e+01
1.5705e+01  1.3989e+01
1.5718e+01  1.2429e+01
1.5731e+01  9.4545e+00
1.5743e+01  8.3893e+00
1.5756e+01  8.2118e+00
1.5768e+01  8.2687e+00
1.5781e+01  8.2245e+00
1.5793e+01  8.1899e+00
1.5806e+01  8.2168e+00
1.5819e+01  8.3011e+00
1.5831e+01  8.2459e+00
1.5844e+01  8.2508e+00
1.5856e+01  8.4308e+00
1.5869e+01  9.0133e+00
1.5881e+01  1.1541e+01
1.5894e+01  1.8038e+01
1.5906e+01  2.4116e+01
1.5919e+01  2.6146e+01
1.5931e+01  2.0406e+01
1.5944e+01  1.1423e+01
1.5956e+01  8.8313e+00
1.5969e+01  8.3241e+00
1.5982e+01  8.1812e+00
1.5994e+01  8.2308e+00
1.6007e+01  8.2074e+00
1.6019e+01  8.1642e+00
1.6032e+01  8.0834e+00
1.6044e+01  8.1667e+00
1.6057e+01  8.1194e+00
1.6069e+01  8.0998e+00
1.6082e+01  8.0461e+00
1.6094e+01  8.0953e+00
1.6107e+01  8.1259e+00
1.6119e+01  8.0891e+00
1.6132e+01  8.1172e+00
1.6144e+01  8.1159e+00
1.6157e+01  8.0954e+00
1.6169e+01  8.0818e+00
1.6181e+01  8.0935e+00
1.6194e+01  8.0766e+00
1.6206e+01  8.1480e+00
1.6219e+01  8.0487e+00
1.6231e+01  8.0999e+00
1.6244e+01  8.0616e+00
1.6256e+01  8.1358e+00
1.6269e+01  8.0889e+00
1.6281e+01  8.3187e+00
1.6294e+01  9.0972e+00
1.6306e+01  1.0969e+01
1.6319e+01  1.3357e+01
1.6331e+01  1.4838e+01
1.6343e+01  1.3817e+01
1.6356e+01  1.0306e+01
1.6368e+01  8.4754e+00
1.6381e+01  8.2385e+00
1.6393e+01  8.1688e+00
1.6406e+01  8.1586e+00
1.6418e+01  8.1746e+00
1.6431e+01  8.1555e+00
1.6443e+01  8.1734e+00
1.6455e+01  8.1987e+00
1.6468e+01  8.3253e+00
1.6480e+01  8.5652e+00
1.6493e+01  1.0112e+01
1.6505e+01  1.5103e+01
1.6517e+01  2.4324e+01
1.6530e+01  3.0604e+01
1.6542e+01  3.1143e+01
1.6555e+01  2.1215e+01
1.6567e+01  1.1290e+01
1.6579e+01  8.7536e+00
1.6592e+01  8.3416e+00
1.6604e+01  8.1923e+00
1.6617e+01  8.1441e+00
1.6629e+01  8.1495e+00
1.6641e+01  8.1338e+00
1.6654e+01  8.0965e+00
1.6666e+01  8.1390e+00
1.6678e+01  8.2269e+00
1.6691e+01  8.5210e+00
1.6703e+01  1.0091e+01
1.6716e+01  1.3056e+01
1.6728e+01  1.6003e+01
1.6740e+01  1.6616e+01
1.6753e+01  1.4052e+01
1.6765e+01  9.9086e+00
1.6777e+01  8.4176e+00
1.6790e+01  8.0924e+00
1.6802e+01  8.0110e+00
1.6814e+01  7.9335e+00
1.6827e+01  7.9925e+00
1.6839e+01  7.9448e+00
1.6851e+01  7.9452e+00
1.6864e+01  8.0782e+00
1.6876e+01  7.9710e+00
1.6888e+01  8.1936e+00
1.6901e+01  8.7335e+00
1.6913e+01  1.0164e+01
1.6925e+01  1.1642e+01
1.6938e+01  1.2106e+01
1.6950e+01  1.1323e+01
1.6962e+01  9.2816e+00
1.6974e+01  8.2112e+00
1.6987e+01  7.8940e+00
1.6999e+01  7.9301e+00
1.7011e+01  7.9254e+00
1.7024e+01  7.9354e+00
1.7036e+01  7.9894e+00
1.7048e+01  7.9769e+00
1.7060e+01  7.9260e+00
1.7073e+01  7.9441e+00
1.7085e+01  8.0093e+00
1.7097e+01  8.6086e+00
1.7110e+01  9.8542e+00
1.7122e+01  1.1054e+01
1.7134e+01  1.1529e+01
1.7146e+01  1.0895e+01
1.7159e+01  9.0730e+00
1.7171e+01  8.1642e+00
1.7183e+01  7.9765e+00
1.7195e+01  7.9667e+00
1.7208e+01  8.0018e+00
1.7220e+01  7.9402e+00
1.7232e+01  7.9488e+00
1.7244e+01  7.9582e+00
1.7257e+01  7.9572e+00
1.7269e+01  8.1162e+00
1.7281e+01  8.7167e+00
1.7293e+01  1.1071e+01
1.7306e+01  1.5661e+01
1.7318e+01  2.0357e+01
1.7330e+01  2.2225e+01
1.7342e+01  1.8915e+01
1.7354e+01  1.2052e+01
1.7367e+01  8.7360e+00
1.7379e+01  7.9782e+00
1.7391e+01  7.9050e+00
1.7403e+01  7.8520e+00
1.7415e+01  7.9096e+00
1.7428e+01  7.9548e+00
1.7440e+01  7.9037e+00
1.7452e+01  7.9706e+00
1.7464e+01  7.9334e+00
1.7476e+01  8.5213e+00
1.7489e+01  1.0566e+01
1.7501e+01  1.4053e+01
1.7513e+01  1.6747e+01
1.7525e+01  1.7447e+01
1.7537e+01  1.4776e+01
1.7549e+01  1.0050e+01
1.7562e+01  8.3233e+00
1.7574e+01  7.8670e+00
1.7586e+01  7.8640e+00
1.7598e+01  7.7177e+00
1.7610e+01  7.6498e+00
1.7622e+01  7.7933e+00
1.7635e+01  7.7723e+00
1.7647e+01  7.6281e+00
1.7659e+01  7.7393e+00
1.7671e+01  7.6457e+00
1.7683e+01  7.6682e+00
1.7695e+01  7.6391e+00
1.7707e+01  7.7562e+00
1.7719e+01  7.5296e+00
1.7732e+01  7.6642e+00
1.7744e+01  7.7210e+00
1.7756e+01  7.6027e+00
1.7768e+01  7.5109e+00
1.7780e+01  7.6393e+00
1.7792e+01  7.6102e+00
1.7804e+01  7.6648e+00
1.7816e+01  7.4674e+00
1.7828e+01  7.5906e+00
1.7841e+01  7.6583e+00
1.7853e+01  7.7032e+00
1.7865e+01  7.7309e+00
1.7877e+01  8.2056e+00
1.7889e+01  8.8339e+00
1.7901e+01  8.8554e+00
1.7913e+01  8.6294e+00
1.7925e+01  8.0822e+00
1.7937e+01  7.6662e+00
1.7949e+01  7.5592e+00
1.7961e+01  7.5498e+00
1.7973e+01  7.5871e+00
1.7985e+01  7.5817e+00
1.7998e+01  7.6236e+00
1.8010e+01  7.6222e+00
1.8022e+01  7.5734e+00
1.8034e+01  7.8335e+00
1.8046e+01  8.6267e+00
1.8058e+01  1.0283e+01
1.8070e+01  1.2347e+01
1.8082e+01  1.3700e+01
1.8094e+01  1.3619e+01
1.8106e+01  1.1536e+01
1.8118e+01  9.0736e+00
1.8130e+01  7.9139e+00
1.8142e+01  7.6929e+00
1.8154e+01  7.6822e+00
1.8166e+01  7.4853e+00
1.8178e+01  7.6395e+00
1.8190e+01  7.6228e+00
1.8202e+01  7.4899e+00
1.8214e+01  7.7449e+00
1.8226e+01  8.4859e+00
1.8238e+01  1.0552e+01
1.8250e+01  1.4243e+01
1.8262e+01  1.7246e+01
1.8274e+01  1.8610e+01
1.8286e+01  1.6568e+01
1.8298e+01  1.1688e+01
1.8310e+01  8.5724e+00
1.8322e+01  8.0359e+00
1.8334e+01  7.4078e+00
1.8346e+01  7.7901e+00
1.8358e+01  7.6342e+00
1.8370e+01  7.6954e+00
1.8382e+01  7.3106e+00
1.8394e+01  7.9886e+00
1.8406e+01  7.9303e+00
1.8418e+01  9.1829e+00
1.8430e+01  1.1757e+01
1.8442e+01  1.3437e+01
1.8454e+01  1.4036e+01
1.8466e+01  1.2281e+01
1.8477e+01  1.0829e+01
1.8489e+01  8.6872e+00
1.8501e+01  7.8153e+00
1.8513e+01  7.4369e+00
1.8525e+01  7.7726e+00
1.8537e+01  7.6436e+00
1.8549e+01  7.2856e+00
1.8561e+01  7.9055e+00
1.8573e+01  7.8766e+00
1.8585e+01  7.4871e+00
1.8597e+01  8.2895e+00
1.8609e+01  8.6169e+00
1.8620e+01  1.0389e+01
1.8632e+01  1.1692e+01
1.8644e+01  1.1254e+01
1.8656e+01  9.3281e+00
1.8668e+01  0.0000e+00
1.8680e+01  0.0000e+00
1.8692e+01  0.0000e+00
1.8704e+01  0.0000e+00
1.8716e+01  0.0000e+00
1.8727e+01  0.0000e+00
1.8739e+01  0.0000e+00
1.8751e+01  0.0000e+00
1.8763e+01  0.0000e+00
1.8775e+01  0.0000e+00
1.8787e+01  0.0000e+00
1.8799e+01  0.0000e+00
1.8811e+01  0.0000e+00
1.8822e+01  0.0000e+00
1.8864e+01  0.0000e+00