File: _archive/xrd_analysis/notebooks/mask-and-integrate/maria-June2018/LaB6_XRD_20180617-053024_dx_47.462mm_dy_-7.901mm_4de88d_0015.xy
# 2Theta    Intensity
4.8253e-03  0.0000e+00
1.4671e-02  8.5714e-01
2.6684e-02  2.1250e+00
3.8745e-02  -3.8095e-01
5.0824e-02  -2.5829e-08
6.2910e-02  1.3714e+00
7.5003e-02  5.2632e-01
8.7098e-02  1.0889e+00
9.9196e-02  1.2000e+00
1.1130e-01  5.7627e-01
1.2340e-01  1.2833e+00
1.3550e-01  4.8438e-01
1.4760e-01  6.7606e-01
1.5970e-01  -2.6761e-01
1.7180e-01  1.5217e-01
1.8391e-01  9.8914e-01
1.9601e-01  1.0094e+00
2.0811e-01  1.7257e+00
2.2022e-01  1.7947e+00
2.3232e-01  1.5041e+00
2.4442e-01  1.8017e+00
2.5653e-01  1.3357e+00
2.6863e-01  2.0000e+00
2.8074e-01  3.3264e+00
2.9284e-01  3.4935e+00
3.0494e-01  3.7104e+00
3.1705e-01  4.9346e+00
3.2915e-01  4.6059e+00
3.4126e-01  5.2693e+00
3.5336e-01  5.0383e+00
3.6547e-01  5.2291e+00
3.7757e-01  5.5159e+00
3.8967e-01  6.6044e+00
4.0178e-01  6.5626e+00
4.1388e-01  7.0188e+00
4.2599e-01  7.1882e+00
4.3809e-01  6.9563e+00
4.5019e-01  7.0413e+00
4.6230e-01  8.0043e+00
4.7440e-01  8.1885e+00
4.8651e-01  8.0680e+00
4.9861e-01  8.3478e+00
5.1071e-01  8.6011e+00
5.2282e-01  8.1578e+00
5.3492e-01  8.2408e+00
5.4703e-01  9.1599e+00
5.5913e-01  8.3091e+00
5.7123e-01  9.0786e+00
5.8334e-01  8.8463e+00
5.9544e-01  8.8004e+00
6.0754e-01  8.8678e+00
6.1965e-01  8.7106e+00
6.3175e-01  9.5179e+00
6.4386e-01  9.3615e+00
6.5596e-01  9.2924e+00
6.6806e-01  9.2256e+00
6.8017e-01  9.7419e+00
6.9227e-01  9.7769e+00
7.0437e-01  9.7965e+00
7.1648e-01  1.0211e+01
7.2858e-01  1.0231e+01
7.4068e-01  9.9219e+00
7.5279e-01  1.0370e+01
7.6489e-01  1.0326e+01
7.7699e-01  1.0626e+01
7.8909e-01  1.0520e+01
8.0120e-01  1.0799e+01
8.1330e-01  1.1126e+01
8.2540e-01  1.1630e+01
8.3751e-01  1.1544e+01
8.4961e-01  1.1463e+01
8.6171e-01  1.2110e+01
8.7381e-01  1.2518e+01
8.8592e-01  1.2735e+01
8.9802e-01  1.3062e+01
9.1012e-01  1.2893e+01
9.2222e-01  1.3841e+01
9.3432e-01  1.4279e+01
9.4643e-01  1.3943e+01
9.5853e-01  1.4386e+01
9.7063e-01  1.4325e+01
9.8273e-01  1.4875e+01
9.9483e-01  1.4590e+01
1.0069e+00  1.4850e+01
1.0190e+00  1.5144e+01
1.0311e+00  1.4664e+01
1.0432e+00  1.4932e+01
1.0553e+00  1.5089e+01
1.0674e+00  1.5172e+01
1.0795e+00  1.5396e+01
1.0916e+00  1.5091e+01
1.1037e+00  1.5073e+01
1.1158e+00  1.5127e+01
1.1279e+00  1.5874e+01
1.1400e+00  1.5233e+01
1.1521e+00  1.6270e+01
1.1642e+00  1.5807e+01
1.1763e+00  1.6302e+01
1.1884e+00  1.5915e+01
1.2005e+00  1.5810e+01
1.2126e+00  1.6419e+01
1.2247e+00  1.6318e+01
1.2368e+00  1.6645e+01
1.2489e+00  1.6659e+01
1.2610e+00  1.6542e+01
1.2731e+00  1.7018e+01
1.2852e+00  1.7304e+01
1.2973e+00  1.7327e+01
1.3094e+00  1.7485e+01
1.3215e+00  1.7739e+01
1.3336e+00  1.7981e+01
1.3457e+00  1.8474e+01
1.3578e+00  1.8403e+01
1.3699e+00  1.7587e+01
1.3820e+00  1.8186e+01
1.3941e+00  1.7646e+01
1.4062e+00  1.8050e+01
1.4183e+00  1.8065e+01
1.4304e+00  1.7588e+01
1.4425e+00  1.7732e+01
1.4546e+00  1.8034e+01
1.4667e+00  1.7708e+01
1.4788e+00  1.7630e+01
1.4909e+00  1.7196e+01
1.5030e+00  1.7989e+01
1.5151e+00  1.8083e+01
1.5272e+00  1.7625e+01
1.5393e+00  1.7584e+01
1.5514e+00  1.7448e+01
1.5635e+00  1.7584e+01
1.5756e+00  1.7274e+01
1.5877e+00  1.6957e+01
1.5998e+00  1.7450e+01
1.6119e+00  1.7081e+01
1.6240e+00  1.6802e+01
1.6361e+00  1.7449e+01
1.6482e+00  1.7268e+01
1.6603e+00  1.7467e+01
1.6724e+00  1.7284e+01
1.6845e+00  1.7445e+01
1.6966e+00  1.7576e+01
1.7086e+00  1.7579e+01
1.7207e+00  1.7232e+01
1.7328e+00  1.7532e+01
1.7449e+00  1.7618e+01
1.7570e+00  1.7719e+01
1.7691e+00  1.7447e+01
1.7812e+00  1.8075e+01
1.7933e+00  1.7842e+01
1.8054e+00  1.7511e+01
1.8175e+00  1.7821e+01
1.8296e+00  1.7802e+01
1.8417e+00  1.7560e+01
1.8538e+00  1.7503e+01
1.8659e+00  1.7679e+01
1.8780e+00  1.7583e+01
1.8901e+00  1.7590e+01
1.9021e+00  1.7008e+01
1.9142e+00  1.6851e+01
1.9263e+00  1.7003e+01
1.9384e+00  1.7391e+01
1.9505e+00  1.6942e+01
1.9626e+00  1.7566e+01
1.9747e+00  1.7264e+01
1.9868e+00  1.7477e+01
1.9989e+00  1.7690e+01
2.0110e+00  1.7440e+01
2.0231e+00  1.7346e+01
2.0352e+00  1.7244e+01
2.0472e+00  1.7216e+01
2.0593e+00  1.7070e+01
2.0714e+00  1.7038e+01
2.0835e+00  1.7171e+01
2.0956e+00  1.6826e+01
2.1077e+00  1.6865e+01
2.1198e+00  1.7161e+01
2.1319e+00  1.6849e+01
2.1440e+00  1.6954e+01
2.1561e+00  1.6917e+01
2.1681e+00  1.6814e+01
2.1802e+00  1.6753e+01
2.1923e+00  1.6736e+01
2.2044e+00  1.6616e+01
2.2165e+00  1.6579e+01
2.2286e+00  1.6586e+01
2.2407e+00  1.6432e+01
2.2528e+00  1.6494e+01
2.2648e+00  1.6635e+01
2.2769e+00  1.6463e+01
2.2890e+00  1.6338e+01
2.3011e+00  1.6402e+01
2.3132e+00  1.6506e+01
2.3253e+00  1.6087e+01
2.3374e+00  1.6050e+01
2.3494e+00  1.6174e+01
2.3615e+00  1.6186e+01
2.3736e+00  1.6059e+01
2.3857e+00  1.5846e+01
2.3978e+00  1.5745e+01
2.4099e+00  1.5931e+01
2.4220e+00  1.5734e+01
2.4340e+00  1.5813e+01
2.4461e+00  1.5786e+01
2.4582e+00  1.5980e+01
2.4703e+00  1.6225e+01
2.4824e+00  1.6129e+01
2.4945e+00  1.6053e+01
2.5065e+00  1.6232e+01
2.5186e+00  1.6274e+01
2.5307e+00  1.6060e+01
2.5428e+00  1.6257e+01
2.5549e+00  1.6394e+01
2.5670e+00  1.6638e+01
2.5790e+00  1.7063e+01
2.5911e+00  1.9989e+01
2.6032e+00  3.9633e+01
2.6153e+00  1.0629e+02
2.6274e+00  1.0714e+02
2.6394e+00  3.8452e+01
2.6515e+00  2.0180e+01
2.6636e+00  1.7142e+01
2.6757e+00  1.6366e+01
2.6878e+00  1.6111e+01
2.6998e+00  1.6060e+01
2.7119e+00  1.5971e+01
2.7240e+00  1.5610e+01
2.7361e+00  1.5450e+01
2.7482e+00  1.5789e+01
2.7602e+00  1.5732e+01
2.7723e+00  1.5703e+01
2.7844e+00  1.5479e+01
2.7965e+00  1.5195e+01
2.8085e+00  1.4951e+01
2.8206e+00  1.4919e+01
2.8327e+00  1.4731e+01
2.8448e+00  1.4603e+01
2.8568e+00  1.4927e+01
2.8689e+00  1.5537e+01
2.8810e+00  1.5227e+01
2.8931e+00  1.4505e+01
2.9052e+00  1.4092e+01
2.9172e+00  1.3994e+01
2.9293e+00  1.4001e+01
2.9414e+00  1.4176e+01
2.9534e+00  1.3785e+01
2.9655e+00  1.3817e+01
2.9776e+00  1.3637e+01
2.9897e+00  1.3650e+01
3.0017e+00  1.3466e+01
3.0138e+00  1.3897e+01
3.0259e+00  1.3740e+01
3.0380e+00  1.3489e+01
3.0500e+00  1.3436e+01
3.0621e+00  1.3496e+01
3.0742e+00  1.3598e+01
3.0862e+00  1.3568e+01
3.0983e+00  1.3573e+01
3.1104e+00  1.3618e+01
3.1225e+00  1.3784e+01
3.1345e+00  1.3711e+01
3.1466e+00  1.3628e+01
3.1587e+00  1.3421e+01
3.1707e+00  1.3639e+01
3.1828e+00  1.3509e+01
3.1949e+00  1.3491e+01
3.2070e+00  1.3863e+01
3.2190e+00  1.3768e+01
3.2311e+00  1.3889e+01
3.2432e+00  1.4013e+01
3.2552e+00  1.4019e+01
3.2673e+00  1.4057e+01
3.2794e+00  1.3658e+01
3.2914e+00  1.3151e+01
3.3035e+00  1.2980e+01
3.3156e+00  1.2930e+01
3.3276e+00  1.2690e+01
3.3397e+00  1.2711e+01
3.3518e+00  1.2469e+01
3.3638e+00  1.2300e+01
3.3759e+00  1.2334e+01
3.3879e+00  1.2065e+01
3.4000e+00  1.1795e+01
3.4121e+00  1.1959e+01
3.4241e+00  1.1695e+01
3.4362e+00  1.1796e+01
3.4483e+00  1.1732e+01
3.4603e+00  1.1572e+01
3.4724e+00  1.1744e+01
3.4845e+00  1.1792e+01
3.4965e+00  1.1990e+01
3.5086e+00  1.1780e+01
3.5206e+00  1.1561e+01
3.5327e+00  1.1151e+01
3.5448e+00  1.1189e+01
3.5568e+00  1.1199e+01
3.5689e+00  1.1051e+01
3.5809e+00  1.1097e+01
3.5930e+00  1.1130e+01
3.6051e+00  1.1183e+01
3.6171e+00  1.1150e+01
3.6292e+00  1.1175e+01
3.6412e+00  1.1254e+01
3.6533e+00  1.1725e+01
3.6654e+00  1.3118e+01
3.6774e+00  1.9612e+01
3.6895e+00  6.1914e+01
3.7015e+00  2.0019e+02
3.7136e+00  2.1301e+02
3.7256e+00  6.2810e+01
3.7377e+00  2.0546e+01
3.7497e+00  1.3236e+01
3.7618e+00  1.1325e+01
3.7739e+00  1.0850e+01
3.7859e+00  1.0581e+01
3.7980e+00  1.0207e+01
3.8100e+00  1.0091e+01
3.8221e+00  9.7922e+00
3.8341e+00  9.6826e+00
3.8462e+00  9.5737e+00
3.8582e+00  9.5849e+00
3.8703e+00  9.7055e+00
3.8823e+00  9.3714e+00
3.8944e+00  9.5925e+00
3.9064e+00  9.6380e+00
3.9185e+00  9.5409e+00
3.9305e+00  9.5669e+00
3.9426e+00  9.1076e+00
3.9546e+00  9.2037e+00
3.9667e+00  9.2637e+00
3.9787e+00  9.1583e+00
3.9908e+00  9.0423e+00
4.0028e+00  9.1169e+00
4.0149e+00  9.1367e+00
4.0269e+00  9.2871e+00
4.0390e+00  9.7337e+00
4.0510e+00  1.0791e+01
4.0631e+00  1.1554e+01
4.0751e+00  1.1149e+01
4.0871e+00  1.0136e+01
4.0992e+00  1.0073e+01
4.1112e+00  1.0182e+01
4.1233e+00  1.0452e+01
4.1353e+00  1.0323e+01
4.1474e+00  9.5094e+00
4.1594e+00  9.1357e+00
4.1715e+00  8.8896e+00
4.1835e+00  8.7346e+00
4.1955e+00  8.4691e+00
4.2076e+00  8.4277e+00
4.2196e+00  8.4041e+00
4.2317e+00  8.4506e+00
4.2437e+00  8.3052e+00
4.2557e+00  8.3999e+00
4.2678e+00  8.5457e+00
4.2798e+00  8.6614e+00
4.2919e+00  8.3936e+00
4.3039e+00  8.2970e+00
4.3159e+00  8.1575e+00
4.3280e+00  8.4107e+00
4.3400e+00  8.1301e+00
4.3521e+00  8.2192e+00
4.3641e+00  8.2439e+00
4.3761e+00  8.4278e+00
4.3882e+00  8.6713e+00
4.4002e+00  8.3876e+00
4.4122e+00  8.3104e+00
4.4243e+00  8.2689e+00
4.4363e+00  8.0645e+00
4.4483e+00  8.1402e+00
4.4604e+00  8.3523e+00
4.4724e+00  8.0386e+00
4.4844e+00  8.3535e+00
4.4965e+00  9.0010e+00
4.5085e+00  1.1271e+01
4.5205e+00  2.4358e+01
4.5326e+00  6.4013e+01
4.5446e+00  8.2562e+01
4.5566e+00  3.8680e+01
4.5687e+00  1.4587e+01
4.5807e+00  9.4715e+00
4.5927e+00  8.6593e+00
4.6048e+00  8.1956e+00
4.6168e+00  8.0311e+00
4.6288e+00  8.0722e+00
4.6408e+00  7.9227e+00
4.6529e+00  7.9406e+00
4.6649e+00  7.6747e+00
4.6769e+00  7.4587e+00
4.6890e+00  7.7627e+00
4.7010e+00  7.6542e+00
4.7130e+00  7.6692e+00
4.7250e+00  7.7971e+00
4.7371e+00  7.6343e+00
4.7491e+00  7.9829e+00
4.7611e+00  7.8001e+00
4.7731e+00  7.4518e+00
4.7851e+00  7.3003e+00
4.7972e+00  7.3175e+00
4.8092e+00  7.5940e+00
4.8212e+00  7.3050e+00
4.8332e+00  7.5071e+00
4.8453e+00  7.4713e+00
4.8573e+00  7.2298e+00
4.8693e+00  7.2972e+00
4.8813e+00  7.4094e+00
4.8933e+00  7.6027e+00
4.9054e+00  7.6453e+00
4.9174e+00  7.6161e+00
4.9294e+00  7.7303e+00
4.9414e+00  7.6241e+00
4.9534e+00  7.7517e+00
4.9654e+00  8.0634e+00
4.9775e+00  8.5367e+00
4.9895e+00  8.0501e+00
5.0015e+00  7.8266e+00
5.0135e+00  7.4598e+00
5.0255e+00  7.2355e+00
5.0375e+00  7.2440e+00
5.0496e+00  7.2627e+00
5.0616e+00  7.1758e+00
5.0736e+00  7.0809e+00
5.0856e+00  7.1072e+00
5.0976e+00  7.2848e+00
5.1096e+00  7.2654e+00
5.1216e+00  7.2659e+00
5.1336e+00  7.5235e+00
5.1456e+00  7.7903e+00
5.1577e+00  7.8746e+00
5.1697e+00  7.5678e+00
5.1817e+00  7.5817e+00
5.1937e+00  7.4887e+00
5.2057e+00  8.1104e+00
5.2177e+00  1.1149e+01
5.2297e+00  2.4096e+01
5.2417e+00  4.7986e+01
5.2537e+00  3.5947e+01
5.2657e+00  1.4894e+01
5.2777e+00  8.7381e+00
5.2897e+00  7.5940e+00
5.3017e+00  7.6526e+00
5.3137e+00  7.0703e+00
5.3258e+00  7.2462e+00
5.3378e+00  7.1809e+00
5.3498e+00  7.1814e+00
5.3618e+00  7.1928e+00
5.3738e+00  7.3592e+00
5.3858e+00  7.4610e+00
5.3978e+00  7.3291e+00
5.4098e+00  7.6223e+00
5.4218e+00  7.1573e+00
5.4338e+00  7.2828e+00
5.4458e+00  7.0829e+00
5.4578e+00  7.0528e+00
5.4698e+00  7.0566e+00
5.4818e+00  6.9798e+00
5.4938e+00  7.0491e+00
5.5057e+00  7.0993e+00
5.5177e+00  7.2042e+00
5.5297e+00  7.1401e+00
5.5417e+00  7.1534e+00
5.5537e+00  7.3136e+00
5.5657e+00  7.1154e+00
5.5777e+00  7.2882e+00
5.5897e+00  6.9930e+00
5.6017e+00  7.1595e+00
5.6137e+00  7.4105e+00
5.6257e+00  7.1251e+00
5.6377e+00  7.2867e+00
5.6497e+00  7.0818e+00
5.6617e+00  7.0607e+00
5.6736e+00  7.1775e+00
5.6856e+00  7.1550e+00
5.6976e+00  7.2810e+00
5.7096e+00  7.2158e+00
5.7216e+00  7.3207e+00
5.7336e+00  7.6280e+00
5.7456e+00  7.9434e+00
5.7576e+00  7.7797e+00
5.7695e+00  7.6276e+00
5.7815e+00  7.5083e+00
5.7935e+00  7.1741e+00
5.8055e+00  7.4268e+00
5.8175e+00  7.9525e+00
5.8295e+00  1.0406e+01
5.8415e+00  2.3414e+01
5.8534e+00  7.2457e+01
5.8654e+00  1.0653e+02
5.8774e+00  5.8465e+01
5.8894e+00  1.8143e+01
5.9014e+00  9.3994e+00
5.9133e+00  7.7580e+00
5.9253e+00  7.2595e+00
5.9373e+00  7.1724e+00
5.9493e+00  7.0395e+00
5.9613e+00  6.8467e+00
5.9732e+00  6.8041e+00
5.9852e+00  6.7167e+00
5.9972e+00  6.7497e+00
6.0092e+00  6.6911e+00
6.0211e+00  6.6687e+00
6.0331e+00  6.4351e+00
6.0451e+00  6.6116e+00
6.0571e+00  6.5507e+00
6.0690e+00  6.6335e+00
6.0810e+00  6.7414e+00
6.0930e+00  6.7514e+00
6.1049e+00  6.6364e+00
6.1169e+00  6.8902e+00
6.1289e+00  6.8745e+00
6.1409e+00  7.0740e+00
6.1528e+00  7.1080e+00
6.1648e+00  7.1149e+00
6.1768e+00  7.4371e+00
6.1887e+00  7.2961e+00
6.2007e+00  6.8638e+00
6.2127e+00  6.8803e+00
6.2246e+00  6.6829e+00
6.2366e+00  6.5103e+00
6.2486e+00  6.5946e+00
6.2605e+00  6.6411e+00
6.2725e+00  6.6372e+00
6.2844e+00  6.6696e+00
6.2964e+00  6.5031e+00
6.3084e+00  6.4003e+00
6.3203e+00  6.6247e+00
6.3323e+00  6.5947e+00
6.3443e+00  6.6270e+00
6.3562e+00  6.7727e+00
6.3682e+00  6.7930e+00
6.3801e+00  7.1060e+00
6.3921e+00  9.1571e+00
6.4041e+00  1.9651e+01
6.4160e+00  5.1585e+01
6.4280e+00  5.8790e+01
6.4399e+00  3.1180e+01
6.4519e+00  1.1739e+01
6.4638e+00  7.9333e+00
6.4758e+00  6.6669e+00
6.4877e+00  6.8329e+00
6.4997e+00  6.6495e+00
6.5116e+00  6.8135e+00
6.5236e+00  6.4405e+00
6.5356e+00  6.3230e+00
6.5475e+00  6.2636e+00
6.5595e+00  6.2126e+00
6.5714e+00  6.2504e+00
6.5834e+00  6.1878e+00
6.5953e+00  6.0672e+00
6.6072e+00  6.3933e+00
6.6192e+00  6.0157e+00
6.6311e+00  6.1539e+00
6.6431e+00  6.2250e+00
6.6550e+00  6.1982e+00
6.6670e+00  6.1260e+00
6.6789e+00  6.0851e+00
6.6909e+00  6.2906e+00
6.7028e+00  6.3469e+00
6.7148e+00  6.1166e+00
6.7267e+00  6.2161e+00
6.7386e+00  6.2715e+00
6.7506e+00  6.1333e+00
6.7625e+00  6.2269e+00
6.7745e+00  6.1361e+00
6.7864e+00  6.0582e+00
6.7983e+00  6.1962e+00
6.8103e+00  6.1815e+00
6.8222e+00  6.3334e+00
6.8342e+00  6.4176e+00
6.8461e+00  6.3273e+00
6.8580e+00  6.2791e+00
6.8700e+00  6.0914e+00
6.8819e+00  6.2154e+00
6.8938e+00  6.3977e+00
6.9058e+00  6.3049e+00
6.9177e+00  6.2382e+00
6.9296e+00  6.4849e+00
6.9416e+00  6.3696e+00
6.9535e+00  6.1914e+00
6.9654e+00  6.2468e+00
6.9774e+00  6.2189e+00
6.9893e+00  6.2517e+00
7.0012e+00  6.2322e+00
7.0131e+00  6.2667e+00
7.0251e+00  6.9046e+00
7.0370e+00  7.1275e+00
7.0489e+00  7.2011e+00
7.0609e+00  7.0264e+00
7.0728e+00  6.7569e+00
7.0847e+00  6.4437e+00
7.0966e+00  6.3015e+00
7.1085e+00  6.2342e+00
7.1205e+00  6.2043e+00
7.1324e+00  5.8607e+00
7.1443e+00  6.1445e+00
7.1562e+00  6.1257e+00
7.1682e+00  6.2182e+00
7.1801e+00  6.0336e+00
7.1920e+00  6.1271e+00
7.2039e+00  6.1410e+00
7.2158e+00  6.0769e+00
7.2277e+00  6.2562e+00
7.2397e+00  6.1203e+00
7.2516e+00  6.0763e+00
7.2635e+00  6.2544e+00
7.2754e+00  6.0737e+00
7.2873e+00  6.1844e+00
7.2992e+00  6.2626e+00
7.3112e+00  6.1216e+00
7.3231e+00  6.1232e+00
7.3350e+00  6.2390e+00
7.3469e+00  6.1225e+00
7.3588e+00  6.1188e+00
7.3707e+00  6.2298e+00
7.3826e+00  6.5354e+00
7.3945e+00  9.1606e+00
7.4064e+00  1.8207e+01
7.4183e+00  2.6091e+01
7.4302e+00  1.8949e+01
7.4422e+00  9.6930e+00
7.4541e+00  7.0536e+00
7.4660e+00  6.4575e+00
7.4779e+00  6.3202e+00
7.4898e+00  6.2170e+00
7.5017e+00  6.1699e+00
7.5136e+00  6.1893e+00
7.5255e+00  6.2222e+00
7.5374e+00  6.3885e+00
7.5493e+00  6.2624e+00
7.5612e+00  6.3126e+00
7.5731e+00  6.6881e+00
7.5850e+00  6.4404e+00
7.5969e+00  6.4019e+00
7.6088e+00  6.2494e+00
7.6207e+00  6.4047e+00
7.6326e+00  6.1796e+00
7.6445e+00  6.4225e+00
7.6564e+00  6.3095e+00
7.6682e+00  6.2727e+00
7.6801e+00  6.1788e+00
7.6920e+00  6.3366e+00
7.7039e+00  6.3357e+00
7.7158e+00  6.6144e+00
7.7277e+00  6.2506e+00
7.7396e+00  6.2981e+00
7.7515e+00  6.3935e+00
7.7634e+00  6.6186e+00
7.7753e+00  6.3263e+00
7.7871e+00  6.4056e+00
7.7990e+00  6.3674e+00
7.8109e+00  6.6775e+00
7.8228e+00  7.2449e+00
7.8347e+00  8.9002e+00
7.8466e+00  1.7670e+01
7.8585e+00  4.5206e+01
7.8703e+00  6.0849e+01
7.8822e+00  4.4538e+01
7.8941e+00  1.7367e+01
7.9060e+00  8.5595e+00
7.9179e+00  7.1145e+00
7.9297e+00  6.3832e+00
7.9416e+00  6.3787e+00
7.9535e+00  6.6192e+00
7.9654e+00  6.3166e+00
7.9772e+00  6.1760e+00
7.9891e+00  6.2394e+00
8.0010e+00  6.1923e+00
8.0129e+00  6.0253e+00
8.0247e+00  6.2041e+00
8.0366e+00  6.4011e+00
8.0485e+00  6.0304e+00
8.0604e+00  6.2485e+00
8.0722e+00  6.1658e+00
8.0841e+00  6.0826e+00
8.0960e+00  6.2105e+00
8.1078e+00  6.2004e+00
8.1197e+00  6.3168e+00
8.1316e+00  6.3979e+00
8.1434e+00  6.4642e+00
8.1553e+00  6.3327e+00
8.1672e+00  6.2165e+00
8.1790e+00  6.2166e+00
8.1909e+00  6.1064e+00
8.2028e+00  6.3629e+00
8.2146e+00  6.3633e+00
8.2265e+00  6.3609e+00
8.2383e+00  6.4301e+00
8.2502e+00  6.9157e+00
8.2621e+00  8.2681e+00
8.2739e+00  1.4925e+01
8.2858e+00  3.6057e+01
8.2976e+00  4.4860e+01
8.3095e+00  2.9212e+01
8.3214e+00  1.2671e+01
8.3332e+00  7.6970e+00
8.3451e+00  6.4665e+00
8.3569e+00  6.3595e+00
8.3688e+00  6.3616e+00
8.3806e+00  6.0949e+00
8.3925e+00  6.1330e+00
8.4043e+00  6.1964e+00
8.4162e+00  6.0240e+00
8.4280e+00  6.0381e+00
8.4399e+00  5.9303e+00
8.4517e+00  6.0450e+00
8.4636e+00  6.0385e+00
8.4754e+00  6.0537e+00
8.4873e+00  6.1253e+00
8.4991e+00  6.0745e+00
8.5109e+00  6.0397e+00
8.5228e+00  5.9719e+00
8.5346e+00  5.9657e+00
8.5465e+00  6.0617e+00
8.5583e+00  6.1975e+00
8.5702e+00  5.9814e+00
8.5820e+00  6.1081e+00
8.5938e+00  6.0077e+00
8.6057e+00  6.2064e+00
8.6175e+00  6.1326e+00
8.6294e+00  6.2328e+00
8.6412e+00  6.1473e+00
8.6530e+00  6.4490e+00
8.6649e+00  6.8742e+00
8.6767e+00  9.4876e+00
8.6885e+00  1.8540e+01
8.7004e+00  2.8428e+01
8.7122e+00  2.2907e+01
8.7240e+00  1.1949e+01
8.7359e+00  7.4483e+00
8.7477e+00  6.4930e+00
8.7595e+00  6.2702e+00
8.7713e+00  6.2041e+00
8.7832e+00  6.4189e+00
8.7950e+00  6.2524e+00
8.8068e+00  6.0855e+00
8.8186e+00  6.1610e+00
8.8305e+00  5.9402e+00
8.8423e+00  6.1402e+00
8.8541e+00  6.1294e+00
8.8659e+00  6.1957e+00
8.8778e+00  6.0252e+00
8.8896e+00  6.1708e+00
8.9014e+00  6.1468e+00
8.9132e+00  6.0359e+00
8.9250e+00  6.0360e+00
8.9369e+00  6.0422e+00
8.9487e+00  6.1907e+00
8.9605e+00  6.2001e+00
8.9723e+00  6.1652e+00
8.9841e+00  6.1351e+00
8.9959e+00  6.1208e+00
9.0077e+00  6.1857e+00
9.0196e+00  5.9315e+00
9.0314e+00  5.9044e+00
9.0432e+00  6.1829e+00
9.0550e+00  6.4175e+00
9.0668e+00  6.9826e+00
9.0786e+00  8.6483e+00
9.0904e+00  9.6874e+00
9.1022e+00  8.7307e+00
9.1140e+00  7.0400e+00
9.1258e+00  6.2535e+00
9.1376e+00  6.1961e+00
9.1494e+00  5.8909e+00
9.1612e+00  5.9087e+00
9.1730e+00  5.9133e+00
9.1848e+00  6.0241e+00
9.1967e+00  5.9007e+00
9.2085e+00  6.0053e+00
9.2202e+00  5.8156e+00
9.2320e+00  5.8140e+00
9.2438e+00  5.8841e+00
9.2556e+00  5.8189e+00
9.2674e+00  5.7378e+00
9.2792e+00  5.7745e+00
9.2910e+00  5.9033e+00
9.3028e+00  5.9319e+00
9.3146e+00  5.9650e+00
9.3264e+00  5.8464e+00
9.3382e+00  5.8553e+00
9.3500e+00  5.9591e+00
9.3618e+00  5.8291e+00
9.3736e+00  5.9918e+00
9.3854e+00  5.7741e+00
9.3971e+00  5.9409e+00
9.4089e+00  6.0908e+00
9.4207e+00  6.3275e+00
9.4325e+00  7.3903e+00
9.4443e+00  1.2610e+01
9.4561e+00  2.0078e+01
9.4679e+00  2.1323e+01
9.4796e+00  1.3421e+01
9.4914e+00  7.5182e+00
9.5032e+00  6.3406e+00
9.5150e+00  6.1480e+00
9.5268e+00  6.1666e+00
9.5385e+00  6.0656e+00
9.5503e+00  5.8507e+00
9.5621e+00  5.8428e+00
9.5739e+00  5.8198e+00
9.5856e+00  5.8515e+00
9.5974e+00  5.5283e+00
9.6092e+00  5.4858e+00
9.6210e+00  5.6801e+00
9.6327e+00  5.4065e+00
9.6445e+00  5.7233e+00
9.6563e+00  5.5467e+00
9.6680e+00  5.9310e+00
9.6798e+00  5.8640e+00
9.6916e+00  5.7396e+00
9.7033e+00  5.7763e+00
9.7151e+00  5.7783e+00
9.7269e+00  5.5544e+00
9.7386e+00  5.8431e+00
9.7504e+00  6.0616e+00
9.7622e+00  5.8917e+00
9.7739e+00  6.2664e+00
9.7857e+00  7.4558e+00
9.7974e+00  1.3977e+01
9.8092e+00  3.0990e+01
9.8210e+00  4.2644e+01
9.8327e+00  3.0328e+01
9.8445e+00  1.2948e+01
9.8562e+00  7.2016e+00
9.8680e+00  6.1544e+00
9.8797e+00  5.8175e+00
9.8915e+00  5.7728e+00
9.9032e+00  5.6377e+00
9.9150e+00  5.8542e+00
9.9267e+00  5.7038e+00
9.9385e+00  5.7800e+00
9.9502e+00  5.8161e+00
9.9620e+00  5.6302e+00
9.9737e+00  5.9575e+00
9.9855e+00  5.8077e+00
9.9972e+00  5.7458e+00
1.0009e+01  5.9577e+00
1.0021e+01  5.5415e+00
1.0032e+01  5.7794e+00
1.0044e+01  5.5336e+00
1.0056e+01  5.7439e+00
1.0068e+01  5.6241e+00
1.0079e+01  5.7189e+00
1.0091e+01  5.6892e+00
1.0103e+01  5.6817e+00
1.0115e+01  5.7481e+00
1.0126e+01  5.3710e+00
1.0138e+01  5.4985e+00
1.0150e+01  5.6896e+00
1.0162e+01  5.4711e+00
1.0173e+01  5.5500e+00
1.0185e+01  5.5169e+00
1.0197e+01  5.5283e+00
1.0208e+01  5.4852e+00
1.0220e+01  5.3512e+00
1.0232e+01  5.3005e+00
1.0244e+01  5.3816e+00
1.0255e+01  5.2826e+00
1.0267e+01  5.5326e+00
1.0279e+01  5.4976e+00
1.0291e+01  5.4046e+00
1.0302e+01  5.3528e+00
1.0314e+01  5.3037e+00
1.0326e+01  5.4055e+00
1.0337e+01  5.3882e+00
1.0349e+01  5.5732e+00
1.0361e+01  5.5561e+00
1.0373e+01  5.4526e+00
1.0384e+01  5.5035e+00
1.0396e+01  5.4411e+00
1.0408e+01  5.5475e+00
1.0419e+01  5.4248e+00
1.0431e+01  5.4393e+00
1.0443e+01  5.4464e+00
1.0455e+01  5.6706e+00
1.0466e+01  5.7761e+00
1.0478e+01  6.7862e+00
1.0490e+01  9.1192e+00
1.0501e+01  1.0040e+01
1.0513e+01  8.5666e+00
1.0525e+01  6.6088e+00
1.0537e+01  6.0166e+00
1.0548e+01  5.7870e+00
1.0560e+01  5.6392e+00
1.0572e+01  5.4065e+00
1.0583e+01  5.4111e+00
1.0595e+01  5.4590e+00
1.0607e+01  5.4643e+00
1.0619e+01  5.1625e+00
1.0630e+01  5.4328e+00
1.0642e+01  5.3721e+00
1.0654e+01  5.2788e+00
1.0665e+01  5.4691e+00
1.0677e+01  5.1841e+00
1.0689e+01  5.3806e+00
1.0700e+01  5.4984e+00
1.0712e+01  5.3080e+00
1.0724e+01  5.6069e+00
1.0735e+01  5.8476e+00
1.0747e+01  5.8093e+00
1.0759e+01  6.0357e+00
1.0771e+01  6.0421e+00
1.0782e+01  6.3364e+00
1.0794e+01  8.1894e+00
1.0806e+01  1.5420e+01
1.0817e+01  2.5086e+01
1.0829e+01  2.6806e+01
1.0841e+01  1.8923e+01
1.0852e+01  9.4058e+00
1.0864e+01  6.2464e+00
1.0876e+01  5.7686e+00
1.0887e+01  5.4727e+00
1.0899e+01  5.5160e+00
1.0911e+01  5.4526e+00
1.0922e+01  5.3305e+00
1.0934e+01  5.1953e+00
1.0946e+01  5.3723e+00
1.0957e+01  5.7252e+00
1.0969e+01  5.4860e+00
1.0981e+01  5.4072e+00
1.0992e+01  5.3357e+00
1.1004e+01  5.3841e+00
1.1016e+01  5.3176e+00
1.1027e+01  5.3783e+00
1.1039e+01  5.3933e+00
1.1051e+01  5.4252e+00
1.1062e+01  5.3936e+00
1.1074e+01  5.3251e+00
1.1086e+01  5.7335e+00
1.1097e+01  5.8095e+00
1.1109e+01  7.5043e+00
1.1121e+01  1.4385e+01
1.1132e+01  2.3549e+01
1.1144e+01  2.4567e+01
1.1156e+01  1.6741e+01
1.1167e+01  8.5177e+00
1.1179e+01  6.0415e+00
1.1191e+01  5.4199e+00
1.1202e+01  5.4073e+00
1.1214e+01  5.4350e+00
1.1226e+01  5.5691e+00
1.1237e+01  5.2876e+00
1.1249e+01  5.4097e+00
1.1261e+01  5.3052e+00
1.1272e+01  5.3350e+00
1.1284e+01  5.1804e+00
1.1296e+01  5.0021e+00
1.1307e+01  5.0644e+00
1.1319e+01  5.3980e+00
1.1330e+01  5.4046e+00
1.1342e+01  5.2860e+00
1.1354e+01  5.4842e+00
1.1365e+01  5.4635e+00
1.1377e+01  5.1770e+00
1.1389e+01  5.4765e+00
1.1400e+01  5.5043e+00
1.1412e+01  5.8792e+00
1.1424e+01  7.7308e+00
1.1435e+01  1.1481e+01
1.1447e+01  1.2240e+01
1.1459e+01  1.0343e+01
1.1470e+01  7.4856e+00
1.1482e+01  5.9809e+00
1.1493e+01  5.5886e+00
1.1505e+01  5.6031e+00
1.1517e+01  5.6353e+00
1.1528e+01  5.4461e+00
1.1540e+01  5.3032e+00
1.1552e+01  5.4026e+00
1.1563e+01  5.4053e+00
1.1575e+01  5.1839e+00
1.1586e+01  5.5570e+00
1.1598e+01  5.1415e+00
1.1610e+01  5.2863e+00
1.1621e+01  5.1400e+00
1.1633e+01  5.1386e+00
1.1645e+01  5.3107e+00
1.1656e+01  5.2192e+00
1.1668e+01  5.2454e+00
1.1679e+01  5.3168e+00
1.1691e+01  5.4184e+00
1.1703e+01  5.6966e+00
1.1714e+01  6.5097e+00
1.1726e+01  9.6957e+00
1.1737e+01  1.4609e+01
1.1749e+01  1.4495e+01
1.1761e+01  1.0821e+01
1.1772e+01  7.1803e+00
1.1784e+01  5.7754e+00
1.1795e+01  5.5347e+00
1.1807e+01  5.5095e+00
1.1819e+01  5.2609e+00
1.1830e+01  5.2552e+00
1.1842e+01  5.4730e+00
1.1853e+01  5.3485e+00
1.1865e+01  5.2548e+00
1.1877e+01  5.3861e+00
1.1888e+01  5.4201e+00
1.1900e+01  5.5686e+00
1.1911e+01  5.2091e+00
1.1923e+01  5.4106e+00
1.1935e+01  5.3494e+00
1.1946e+01  5.3524e+00
1.1958e+01  5.3442e+00
1.1969e+01  5.8580e+00
1.1981e+01  5.4837e+00
1.1993e+01  5.8775e+00
1.2004e+01  7.4893e+00
1.2016e+01  1.3984e+01
1.2027e+01  2.0215e+01
1.2039e+01  2.3012e+01
1.2051e+01  1.7298e+01
1.2062e+01  9.3438e+00
1.2074e+01  6.2109e+00
1.2085e+01  5.5160e+00
1.2097e+01  5.3456e+00
1.2108e+01  5.3616e+00
1.2120e+01  5.4434e+00
1.2132e+01  5.4344e+00
1.2143e+01  5.3346e+00
1.2155e+01  5.1874e+00
1.2166e+01  5.1374e+00
1.2178e+01  5.1184e+00
1.2189e+01  5.1943e+00
1.2201e+01  5.2044e+00
1.2213e+01  5.4476e+00
1.2224e+01  5.4629e+00
1.2236e+01  5.2577e+00
1.2247e+01  5.1500e+00
1.2259e+01  5.2687e+00
1.2270e+01  5.1097e+00
1.2282e+01  5.6109e+00
1.2294e+01  6.9720e+00
1.2305e+01  9.9251e+00
1.2317e+01  1.1939e+01
1.2328e+01  1.1664e+01
1.2340e+01  8.8812e+00
1.2351e+01  6.2951e+00
1.2363e+01  5.6195e+00
1.2375e+01  5.0689e+00
1.2386e+01  5.1045e+00
1.2398e+01  5.1957e+00
1.2409e+01  5.2378e+00
1.2421e+01  5.2589e+00
1.2432e+01  5.0505e+00
1.2444e+01  4.9702e+00
1.2455e+01  5.2361e+00
1.2467e+01  5.0443e+00
1.2478e+01  5.1356e+00
1.2490e+01  5.0329e+00
1.2502e+01  5.1037e+00
1.2513e+01  5.3624e+00
1.2525e+01  5.1524e+00
1.2536e+01  5.2028e+00
1.2548e+01  5.1145e+00
1.2559e+01  5.1594e+00
1.2571e+01  5.0713e+00
1.2582e+01  5.2562e+00
1.2594e+01  5.1251e+00
1.2605e+01  4.8598e+00
1.2617e+01  5.1200e+00
1.2628e+01  5.1655e+00
1.2640e+01  5.0377e+00
1.2652e+01  4.9618e+00
1.2663e+01  4.8551e+00
1.2675e+01  4.9809e+00
1.2686e+01  4.9628e+00
1.2698e+01  5.1340e+00
1.2709e+01  4.9600e+00
1.2721e+01  4.9842e+00
1.2732e+01  5.2213e+00
1.2744e+01  5.0275e+00
1.2755e+01  4.9453e+00
1.2767e+01  4.9029e+00
1.2778e+01  5.1060e+00
1.2790e+01  4.9155e+00
1.2801e+01  5.0251e+00
1.2813e+01  5.0324e+00
1.2824e+01  5.2108e+00
1.2836e+01  5.5392e+00
1.2847e+01  6.6007e+00
1.2859e+01  7.7494e+00
1.2870e+01  8.0707e+00
1.2882e+01  7.3390e+00
1.2893e+01  6.5158e+00
1.2905e+01  5.3725e+00
1.2916e+01  5.1139e+00
1.2928e+01  5.2057e+00
1.2939e+01  5.0527e+00
1.2951e+01  5.0051e+00
1.2962e+01  4.9373e+00
1.2974e+01  5.0329e+00
1.2985e+01  5.1321e+00
1.2997e+01  5.0706e+00
1.3008e+01  4.9618e+00
1.3020e+01  5.0471e+00
1.3031e+01  5.0515e+00
1.3043e+01  5.1351e+00
1.3054e+01  5.2011e+00
1.3066e+01  5.0090e+00
1.3077e+01  5.0060e+00
1.3089e+01  5.1285e+00
1.3100e+01  5.5243e+00
1.3112e+01  6.2476e+00
1.3123e+01  8.1785e+00
1.3135e+01  8.3477e+00
1.3146e+01  8.2526e+00
1.3158e+01  6.6605e+00
1.3169e+01  5.5754e+00
1.3181e+01  5.1152e+00
1.3192e+01  5.0484e+00
1.3203e+01  5.1203e+00
1.3215e+01  4.9784e+00
1.3226e+01  5.1544e+00
1.3238e+01  5.0785e+00
1.3249e+01  5.2517e+00
1.3261e+01  5.2681e+00
1.3272e+01  5.1129e+00
1.3284e+01  5.2692e+00
1.3295e+01  5.1348e+00
1.3307e+01  5.0808e+00
1.3318e+01  5.0116e+00
1.3329e+01  5.2866e+00
1.3341e+01  5.4867e+00
1.3352e+01  5.4618e+00
1.3364e+01  7.0047e+00
1.3375e+01  1.0960e+01
1.3387e+01  1.7793e+01
1.3398e+01  2.0097e+01
1.3410e+01  1.7633e+01
1.3421e+01  1.2037e+01
1.3432e+01  6.9173e+00
1.3444e+01  5.5457e+00
1.3455e+01  5.3264e+00
1.3467e+01  5.1177e+00
1.3478e+01  5.1584e+00
1.3490e+01  5.0753e+00
1.3501e+01  5.2701e+00
1.3512e+01  5.1271e+00
1.3524e+01  5.0165e+00
1.3535e+01  5.1137e+00
1.3547e+01  4.9693e+00
1.3558e+01  5.0439e+00
1.3569e+01  4.9733e+00
1.3581e+01  5.0536e+00
1.3592e+01  5.2850e+00
1.3604e+01  5.0619e+00
1.3615e+01  5.5488e+00
1.3627e+01  6.5283e+00
1.3638e+01  9.0480e+00
1.3649e+01  1.0753e+01
1.3661e+01  1.0302e+01
1.3672e+01  8.6886e+00
1.3683e+01  6.4059e+00
1.3695e+01  5.4648e+00
1.3706e+01  5.1497e+00
1.3718e+01  5.2033e+00
1.3729e+01  5.2055e+00
1.3740e+01  5.2422e+00
1.3752e+01  4.9938e+00
1.3763e+01  4.9846e+00
1.3775e+01  5.0489e+00
1.3786e+01  4.7192e+00
1.3797e+01  4.9767e+00
1.3809e+01  4.9968e+00
1.3820e+01  4.8130e+00
1.3831e+01  4.8822e+00
1.3843e+01  5.1547e+00
1.3854e+01  5.1645e+00
1.3866e+01  4.8040e+00
1.3877e+01  4.9443e+00
1.3888e+01  4.8211e+00
1.3900e+01  4.9892e+00
1.3911e+01  4.9827e+00
1.3922e+01  4.9231e+00
1.3934e+01  4.8817e+00
1.3945e+01  4.9082e+00
1.3956e+01  4.8371e+00
1.3968e+01  5.2072e+00
1.3979e+01  4.9843e+00
1.3990e+01  5.0032e+00
1.4002e+01  5.0108e+00
1.4013e+01  5.1318e+00
1.4024e+01  5.0967e+00
1.4036e+01  4.9386e+00
1.4047e+01  5.2264e+00
1.4058e+01  5.0209e+00
1.4070e+01  5.1235e+00
1.4081e+01  5.0291e+00
1.4092e+01  5.0803e+00
1.4104e+01  4.9562e+00
1.4115e+01  5.9378e+00
1.4126e+01  7.9958e+00
1.4138e+01  1.2609e+01
1.4149e+01  1.5344e+01
1.4160e+01  1.4385e+01
1.4172e+01  1.1975e+01
1.4183e+01  7.7752e+00
1.4194e+01  5.5510e+00
1.4206e+01  5.1378e+00
1.4217e+01  5.2220e+00
1.4228e+01  4.9411e+00
1.4239e+01  4.8744e+00
1.4251e+01  5.0845e+00
1.4262e+01  4.9732e+00
1.4273e+01  4.9931e+00
1.4285e+01  4.8779e+00
1.4296e+01  5.1034e+00
1.4307e+01  5.0368e+00
1.4319e+01  4.8471e+00
1.4330e+01  5.1838e+00
1.4341e+01  5.0285e+00
1.4352e+01  5.0257e+00
1.4364e+01  5.4701e+00
1.4375e+01  6.5434e+00
1.4386e+01  8.0771e+00
1.4397e+01  8.4530e+00
1.4409e+01  7.6954e+00
1.4420e+01  6.6327e+00
1.4431e+01  5.4924e+00
1.4443e+01  5.0648e+00
1.4454e+01  5.1413e+00
1.4465e+01  4.8941e+00
1.4476e+01  5.0176e+00
1.4488e+01  5.2088e+00
1.4499e+01  5.0705e+00
1.4510e+01  4.9654e+00
1.4521e+01  5.1087e+00
1.4533e+01  4.6686e+00
1.4544e+01  4.8517e+00
1.4555e+01  4.6510e+00
1.4566e+01  4.8467e+00
1.4578e+01  5.1080e+00
1.4589e+01  4.7550e+00
1.4600e+01  5.1300e+00
1.4611e+01  4.7245e+00
1.4622e+01  5.1062e+00
1.4634e+01  4.5615e+00
1.4645e+01  4.4916e+00
1.4656e+01  4.9970e+00
1.4667e+01  4.9510e+00
1.4679e+01  4.9946e+00
1.4690e+01  5.0541e+00
1.4701e+01  5.0453e+00
1.4712e+01  4.8431e+00
1.4723e+01  4.8586e+00
1.4735e+01  4.8691e+00
1.4746e+01  5.1349e+00
1.4757e+01  4.7399e+00
1.4768e+01  4.5081e+00
1.4779e+01  5.0871e+00
1.4791e+01  4.7297e+00
1.4802e+01  4.7782e+00
1.4813e+01  4.9032e+00
1.4824e+01  5.1622e+00
1.4835e+01  4.6367e+00
1.4847e+01  5.0297e+00
1.4858e+01  5.8126e+00
1.4869e+01  5.8859e+00
1.4880e+01  5.7894e+00
1.4891e+01  5.6779e+00
1.4902e+01  5.4895e+00
1.4914e+01  4.9478e+00
1.4925e+01  5.0185e+00
1.4936e+01  5.0228e+00
1.4947e+01  5.0958e+00
1.4958e+01  4.5831e+00
1.4969e+01  4.7091e+00
1.4981e+01  5.0051e+00
1.4992e+01  4.9993e+00
1.5003e+01  4.8110e+00
1.5014e+01  4.7500e+00
1.5025e+01  4.8296e+00
1.5036e+01  4.9748e+00
1.5048e+01  4.6740e+00
1.5059e+01  5.1447e+00
1.5070e+01  6.2269e+00
1.5081e+01  8.0443e+00
1.5092e+01  1.0067e+01
1.5103e+01  1.1400e+01
1.5114e+01  1.0154e+01
1.5126e+01  8.2445e+00
1.5137e+01  6.1840e+00
1.5148e+01  5.3427e+00
1.5159e+01  5.1765e+00
1.5170e+01  5.1132e+00
1.5181e+01  5.2606e+00
1.5192e+01  4.9659e+00
1.5203e+01  5.2082e+00
1.5214e+01  4.8572e+00
1.5226e+01  4.7632e+00
1.5237e+01  5.0312e+00
1.5248e+01  5.0763e+00
1.5259e+01  5.5429e+00
1.5270e+01  5.1471e+00
1.5281e+01  4.9014e+00
1.5292e+01  5.2737e+00
1.5303e+01  6.6186e+00
1.5314e+01  9.2914e+00
1.5326e+01  1.1107e+01
1.5337e+01  1.0926e+01
1.5348e+01  9.5363e+00
1.5359e+01  7.1873e+00
1.5370e+01  5.3032e+00
1.5381e+01  5.2144e+00
1.5392e+01  5.1352e+00
1.5403e+01  5.0592e+00
1.5414e+01  4.9826e+00
1.5425e+01  5.1668e+00
1.5436e+01  4.4232e+00
1.5447e+01  4.7307e+00
1.5458e+01  4.8051e+00
1.5469e+01  5.0074e+00
1.5481e+01  4.6730e+00
1.5492e+01  4.6264e+00
1.5503e+01  4.7738e+00
1.5514e+01  5.2229e+00
1.5525e+01  6.0113e+00
1.5536e+01  6.9612e+00
1.5547e+01  8.6671e+00
1.5558e+01  8.1857e+00
1.5569e+01  8.0068e+00
1.5580e+01  6.6832e+00
1.5591e+01  5.6354e+00
1.5602e+01  5.0872e+00
1.5613e+01  4.6144e+00
1.5624e+01  4.6612e+00
1.5635e+01  4.7181e+00
1.5646e+01  4.6266e+00
1.5657e+01  4.7529e+00
1.5668e+01  4.4362e+00
1.5679e+01  4.9197e+00
1.5690e+01  4.8879e+00
1.5701e+01  4.7270e+00
1.5712e+01  4.5811e+00
1.5723e+01  4.5196e+00
1.5734e+01  4.3924e+00
1.5745e+01  5.0755e+00
1.5756e+01  6.0291e+00
1.5767e+01  7.1785e+00
1.5778e+01  6.9107e+00
1.5789e+01  6.3276e+00
1.5800e+01  6.0691e+00
1.5811e+01  5.1384e+00
1.5822e+01  4.3588e+00
1.5833e+01  4.7585e+00
1.5844e+01  4.8210e+00
1.5855e+01  4.7415e+00
1.5866e+01  5.0485e+00
1.5877e+01  4.7059e+00
1.5888e+01  4.3235e+00
1.5899e+01  4.2897e+00
1.5910e+01  5.0685e+00
1.5921e+01  4.5699e+00
1.5932e+01  5.3213e+00
1.5943e+01  4.5574e+00
1.5954e+01  4.8397e+00
1.5965e+01  4.8318e+00
1.5976e+01  5.7622e+00
1.5987e+01  5.4644e+00
1.5998e+01  5.5841e+00
1.6009e+01  6.3351e+00
1.6020e+01  5.9051e+00
1.6031e+01  3.9734e+00
1.6042e+01  4.8940e+00
1.6052e+01  5.1091e+00
1.6063e+01  4.8003e+00
1.6074e+01  4.6736e+00
1.6085e+01  4.1746e+00
1.6096e+01  4.2894e+00
1.6107e+01  4.3961e+00
1.6118e+01  4.8067e+00
1.6129e+01  4.9747e+00
1.6140e+01  4.3542e+00
1.6151e+01  5.1064e+00
1.6162e+01  4.5507e+00
1.6173e+01  4.6456e+00
1.6184e+01  5.6775e+00
1.6194e+01  7.1424e+00
1.6205e+01  8.5655e+00
1.6216e+01  9.4815e+00
1.6227e+01  8.3261e+00
1.6238e+01  6.7961e+00
1.6249e+01  5.0622e+00
1.6260e+01  4.7100e+00
1.6271e+01  4.1965e+00
1.6282e+01  4.7585e+00
1.6293e+01  4.4567e+00
1.6303e+01  5.2841e+00
1.6314e+01  3.9364e+00
1.6325e+01  5.3259e+00
1.6336e+01  4.4975e+00
1.6347e+01  4.9969e+00
1.6358e+01  5.7895e+00
1.6369e+01  5.1805e+00
1.6380e+01  4.9008e+00
1.6390e+01  4.6574e+00
1.6401e+01  5.7442e+00
1.6412e+01  3.6514e+00
1.6423e+01  5.3334e+00
1.6434e+01  4.4076e+00
1.6445e+01  4.7171e+00
1.6456e+01  5.0854e+00
1.6466e+01  5.2648e+00
1.6477e+01  5.1348e+00
1.6488e+01  4.5535e+00
1.6499e+01  4.2540e+00
1.6510e+01  3.7676e+00
1.6521e+01  4.4595e+00
1.6531e+01  4.2547e+00
1.6542e+01  3.3370e+00
1.6553e+01  4.8271e+00
1.6564e+01  6.9587e+00
1.6575e+01  5.1165e+00
1.6586e+01  5.4252e+00
1.6596e+01  3.5668e+00
1.6607e+01  4.4078e+00
1.6618e+01  7.8286e+00
1.6629e+01  5.9013e+00
1.6640e+01  5.0844e+00
1.6650e+01  7.0947e+00
1.6661e+01  6.3854e+00
1.6672e+01  4.2572e+00
1.6683e+01  0.0000e+00
1.6694e+01  0.0000e+00
1.6704e+01  0.0000e+00
1.6715e+01  0.0000e+00
1.6726e+01  0.0000e+00
1.6737e+01  0.0000e+00
1.6748e+01  0.0000e+00
1.6758e+01  0.0000e+00
1.6769e+01  0.0000e+00
1.6780e+01  0.0000e+00
1.6791e+01  0.0000e+00
1.6802e+01  0.0000e+00
1.6812e+01  0.0000e+00
1.6823e+01  0.0000e+00
1.6834e+01  0.0000e+00
1.6868e+01  0.0000e+00