File: _archive/xrd_analysis/notebooks/mask-and-integrate/takaaki-Mar018/LaB6/LaB6_20180306-114028_dy=47.862mm_4edcb5_005.xy
# 2Theta    Intensity
4.9787e-03  0.0000e+00
1.4975e-02  1.2857e+00
2.6940e-02  1.4286e-01
3.8933e-02  6.8421e-01
5.0936e-02  1.0000e+00
6.2943e-02  7.0000e-01
7.4953e-02  8.2353e-01
8.6964e-02  1.0000e+00
9.8976e-02  1.0000e+00
1.1099e-01  1.0164e+00
1.2300e-01  8.9063e-01
1.3502e-01  1.0588e+00
1.4703e-01  1.1667e+00
1.5905e-01  1.0649e+00
1.7106e-01  1.3226e+00
1.8308e-01  1.1959e+00
1.9509e-01  1.2941e+00
2.0711e-01  1.3535e+00
2.1912e-01  1.5044e+00
2.3114e-01  1.5630e+00
2.4315e-01  1.7462e+00
2.5517e-01  1.7676e+00
2.6719e-01  1.7971e+00
2.7920e-01  2.0426e+00
2.9122e-01  1.8897e+00
3.0323e-01  2.0795e+00
3.1525e-01  2.3059e+00
3.2726e-01  2.0814e+00
3.3928e-01  2.2347e+00
3.5130e-01  2.3673e+00
3.6331e-01  2.4415e+00
3.7533e-01  2.4849e+00
3.8735e-01  2.6001e+00
3.9936e-01  2.6927e+00
4.1138e-01  2.6494e+00
4.2339e-01  2.9724e+00
4.3541e-01  2.8840e+00
4.4743e-01  3.0992e+00
4.5944e-01  3.1241e+00
4.7146e-01  3.3587e+00
4.8348e-01  3.4124e+00
4.9549e-01  3.4660e+00
5.0751e-01  3.7025e+00
5.1952e-01  4.0001e+00
5.3154e-01  4.3009e+00
5.4356e-01  4.7737e+00
5.5557e-01  4.8619e+00
5.6759e-01  5.3752e+00
5.7961e-01  5.2585e+00
5.9162e-01  5.8970e+00
6.0364e-01  6.1608e+00
6.1565e-01  6.1366e+00
6.2767e-01  6.3917e+00
6.3969e-01  6.3286e+00
6.5170e-01  6.7670e+00
6.6372e-01  6.8927e+00
6.7574e-01  7.0672e+00
6.8775e-01  7.3620e+00
6.9977e-01  7.2704e+00
7.1179e-01  7.6306e+00
7.2380e-01  7.6531e+00
7.3582e-01  7.8417e+00
7.4784e-01  8.2841e+00
7.5985e-01  8.2194e+00
7.7187e-01  8.5857e+00
7.8388e-01  8.4584e+00
7.9590e-01  8.8201e+00
8.0792e-01  9.0216e+00
8.1993e-01  9.3449e+00
8.3195e-01  9.5358e+00
8.4396e-01  9.7770e+00
8.5598e-01  9.7072e+00
8.6800e-01  9.7813e+00
8.8001e-01  1.0145e+01
8.9203e-01  1.0466e+01
9.0405e-01  1.0301e+01
9.1606e-01  1.0560e+01
9.2808e-01  1.0727e+01
9.4009e-01  1.0696e+01
9.5211e-01  1.1107e+01
9.6412e-01  1.1439e+01
9.7614e-01  1.2190e+01
9.8816e-01  1.2143e+01
1.0002e+00  1.2188e+01
1.0122e+00  1.2779e+01
1.0242e+00  1.2847e+01
1.0362e+00  1.3122e+01
1.0482e+00  1.3361e+01
1.0602e+00  1.3393e+01
1.0723e+00  1.3367e+01
1.0843e+00  1.3513e+01
1.0963e+00  1.3556e+01
1.1083e+00  1.3630e+01
1.1203e+00  1.3562e+01
1.1323e+00  1.3738e+01
1.1444e+00  1.3691e+01
1.1564e+00  1.3682e+01
1.1684e+00  1.3808e+01
1.1804e+00  1.3623e+01
1.1924e+00  1.3872e+01
1.2044e+00  1.4033e+01
1.2164e+00  1.3891e+01
1.2285e+00  1.3957e+01
1.2405e+00  1.3641e+01
1.2525e+00  1.4033e+01
1.2645e+00  1.3928e+01
1.2765e+00  1.4010e+01
1.2885e+00  1.4040e+01
1.3005e+00  1.3680e+01
1.3126e+00  1.3924e+01
1.3246e+00  1.4008e+01
1.3366e+00  1.4034e+01
1.3486e+00  1.4134e+01
1.3606e+00  1.4036e+01
1.3726e+00  1.4058e+01
1.3846e+00  1.4005e+01
1.3967e+00  1.4211e+01
1.4087e+00  1.4054e+01
1.4207e+00  1.4216e+01
1.4327e+00  1.4083e+01
1.4447e+00  1.4051e+01
1.4567e+00  1.4179e+01
1.4687e+00  1.3982e+01
1.4807e+00  1.4163e+01
1.4928e+00  1.4113e+01
1.5048e+00  1.4062e+01
1.5168e+00  1.4233e+01
1.5288e+00  1.4081e+01
1.5408e+00  1.4185e+01
1.5528e+00  1.4220e+01
1.5648e+00  1.4198e+01
1.5769e+00  1.4268e+01
1.5889e+00  1.4234e+01
1.6009e+00  1.4223e+01
1.6129e+00  1.4167e+01
1.6249e+00  1.4220e+01
1.6369e+00  1.4242e+01
1.6489e+00  1.4246e+01
1.6609e+00  1.4256e+01
1.6729e+00  1.4185e+01
1.6850e+00  1.4277e+01
1.6970e+00  1.4250e+01
1.7090e+00  1.4169e+01
1.7210e+00  1.4239e+01
1.7330e+00  1.4253e+01
1.7450e+00  1.4268e+01
1.7570e+00  1.4325e+01
1.7690e+00  1.4260e+01
1.7810e+00  1.4230e+01
1.7931e+00  1.4231e+01
1.8051e+00  1.4242e+01
1.8171e+00  1.4207e+01
1.8291e+00  1.4206e+01
1.8411e+00  1.4311e+01
1.8531e+00  1.4196e+01
1.8651e+00  1.4214e+01
1.8771e+00  1.4118e+01
1.8891e+00  1.4197e+01
1.9011e+00  1.4183e+01
1.9132e+00  1.4161e+01
1.9252e+00  1.4150e+01
1.9372e+00  1.4083e+01
1.9492e+00  1.4081e+01
1.9612e+00  1.4112e+01
1.9732e+00  1.4046e+01
1.9852e+00  1.4065e+01
1.9972e+00  1.4037e+01
2.0092e+00  1.3983e+01
2.0212e+00  1.3916e+01
2.0332e+00  1.3967e+01
2.0453e+00  1.3973e+01
2.0573e+00  1.3938e+01
2.0693e+00  1.4008e+01
2.0813e+00  1.3902e+01
2.0933e+00  1.3903e+01
2.1053e+00  1.3855e+01
2.1173e+00  1.3818e+01
2.1293e+00  1.3891e+01
2.1413e+00  1.3842e+01
2.1533e+00  1.3742e+01
2.1653e+00  1.3773e+01
2.1773e+00  1.3847e+01
2.1893e+00  1.3800e+01
2.2013e+00  1.3703e+01
2.2133e+00  1.3705e+01
2.2254e+00  1.3753e+01
2.2374e+00  1.3679e+01
2.2494e+00  1.3704e+01
2.2614e+00  1.3646e+01
2.2734e+00  1.3650e+01
2.2854e+00  1.3679e+01
2.2974e+00  1.3650e+01
2.3094e+00  1.3591e+01
2.3214e+00  1.3604e+01
2.3334e+00  1.3631e+01
2.3454e+00  1.3634e+01
2.3574e+00  1.3631e+01
2.3694e+00  1.3552e+01
2.3814e+00  1.3559e+01
2.3934e+00  1.3546e+01
2.4054e+00  1.3594e+01
2.4174e+00  1.3578e+01
2.4294e+00  1.3502e+01
2.4414e+00  1.3554e+01
2.4534e+00  1.3446e+01
2.4654e+00  1.3557e+01
2.4774e+00  1.3542e+01
2.4894e+00  1.3426e+01
2.5014e+00  1.3523e+01
2.5134e+00  1.3462e+01
2.5254e+00  1.3467e+01
2.5374e+00  1.3512e+01
2.5494e+00  1.3469e+01
2.5614e+00  1.3422e+01
2.5734e+00  1.3410e+01
2.5854e+00  1.3436e+01
2.5974e+00  1.3448e+01
2.6094e+00  1.3411e+01
2.6214e+00  1.3432e+01
2.6335e+00  1.3357e+01
2.6455e+00  1.3412e+01
2.6575e+00  1.3384e+01
2.6695e+00  1.3384e+01
2.6814e+00  1.3381e+01
2.6934e+00  1.3360e+01
2.7054e+00  1.3405e+01
2.7174e+00  1.3401e+01
2.7294e+00  1.3341e+01
2.7414e+00  1.3397e+01
2.7534e+00  1.3378e+01
2.7654e+00  1.3387e+01
2.7774e+00  1.3377e+01
2.7894e+00  1.3350e+01
2.8014e+00  1.3372e+01
2.8134e+00  1.3396e+01
2.8254e+00  1.3337e+01
2.8374e+00  1.3330e+01
2.8494e+00  1.3357e+01
2.8614e+00  1.3338e+01
2.8734e+00  1.3363e+01
2.8854e+00  1.3406e+01
2.8974e+00  1.3388e+01
2.9094e+00  1.3444e+01
2.9214e+00  1.3380e+01
2.9334e+00  1.3426e+01
2.9454e+00  1.3424e+01
2.9574e+00  1.3371e+01
2.9694e+00  1.3387e+01
2.9814e+00  1.3368e+01
2.9934e+00  1.3385e+01
3.0054e+00  1.3393e+01
3.0173e+00  1.3348e+01
3.0293e+00  1.3394e+01
3.0413e+00  1.3371e+01
3.0533e+00  1.3398e+01
3.0653e+00  1.3347e+01
3.0773e+00  1.3349e+01
3.0893e+00  1.3408e+01
3.1013e+00  1.3390e+01
3.1133e+00  1.3490e+01
3.1253e+00  1.3555e+01
3.1373e+00  1.3545e+01
3.1493e+00  1.3620e+01
3.1612e+00  1.3768e+01
3.1732e+00  1.3769e+01
3.1852e+00  1.4011e+01
3.1972e+00  1.4262e+01
3.2092e+00  1.4760e+01
3.2212e+00  1.5991e+01
3.2332e+00  2.1341e+01
3.2452e+00  5.0993e+01
3.2572e+00  1.7064e+02
3.2692e+00  2.5883e+02
3.2811e+00  1.8023e+02
3.2931e+00  1.0016e+02
3.3051e+00  4.2940e+01
3.3171e+00  2.1280e+01
3.3291e+00  1.6051e+01
3.3411e+00  1.4447e+01
3.3531e+00  1.3954e+01
3.3651e+00  1.3672e+01
3.3770e+00  1.3570e+01
3.3890e+00  1.3332e+01
3.4010e+00  1.3172e+01
3.4130e+00  1.3152e+01
3.4250e+00  1.3076e+01
3.4370e+00  1.3033e+01
3.4490e+00  1.2986e+01
3.4609e+00  1.2898e+01
3.4729e+00  1.2857e+01
3.4849e+00  1.2841e+01
3.4969e+00  1.2756e+01
3.5089e+00  1.2789e+01
3.5209e+00  1.2751e+01
3.5328e+00  1.2698e+01
3.5448e+00  1.2703e+01
3.5568e+00  1.2708e+01
3.5688e+00  1.2680e+01
3.5808e+00  1.2591e+01
3.5928e+00  1.2633e+01
3.6047e+00  1.2593e+01
3.6167e+00  1.2589e+01
3.6287e+00  1.2523e+01
3.6407e+00  1.2442e+01
3.6527e+00  1.2475e+01
3.6646e+00  1.2412e+01
3.6766e+00  1.2438e+01
3.6886e+00  1.2484e+01
3.7006e+00  1.2358e+01
3.7126e+00  1.2351e+01
3.7245e+00  1.2345e+01
3.7365e+00  1.2347e+01
3.7485e+00  1.2391e+01
3.7605e+00  1.2372e+01
3.7724e+00  1.2396e+01
3.7844e+00  1.2350e+01
3.7964e+00  1.2390e+01
3.8084e+00  1.2408e+01
3.8204e+00  1.2355e+01
3.8323e+00  1.2363e+01
3.8443e+00  1.2321e+01
3.8563e+00  1.2271e+01
3.8683e+00  1.2271e+01
3.8802e+00  1.2272e+01
3.8922e+00  1.2254e+01
3.9042e+00  1.2268e+01
3.9162e+00  1.2262e+01
3.9281e+00  1.2274e+01
3.9401e+00  1.2260e+01
3.9521e+00  1.2234e+01
3.9640e+00  1.2243e+01
3.9760e+00  1.2231e+01
3.9880e+00  1.2250e+01
4.0000e+00  1.2233e+01
4.0119e+00  1.2199e+01
4.0239e+00  1.2248e+01
4.0359e+00  1.2210e+01
4.0479e+00  1.2252e+01
4.0598e+00  1.2238e+01
4.0718e+00  1.2213e+01
4.0838e+00  1.2233e+01
4.0957e+00  1.2187e+01
4.1077e+00  1.2186e+01
4.1197e+00  1.2176e+01
4.1316e+00  1.2209e+01
4.1436e+00  1.2147e+01
4.1556e+00  1.2200e+01
4.1675e+00  1.2141e+01
4.1795e+00  1.2177e+01
4.1915e+00  1.2168e+01
4.2034e+00  1.2164e+01
4.2154e+00  1.2165e+01
4.2274e+00  1.2169e+01
4.2393e+00  1.2200e+01
4.2513e+00  1.2174e+01
4.2633e+00  1.2157e+01
4.2752e+00  1.2165e+01
4.2872e+00  1.2216e+01
4.2992e+00  1.2161e+01
4.3111e+00  1.2168e+01
4.3231e+00  1.2150e+01
4.3351e+00  1.2200e+01
4.3470e+00  1.2235e+01
4.3590e+00  1.2230e+01
4.3709e+00  1.2276e+01
4.3829e+00  1.2282e+01
4.3949e+00  1.2339e+01
4.4068e+00  1.2311e+01
4.4188e+00  1.2372e+01
4.4307e+00  1.2388e+01
4.4427e+00  1.2445e+01
4.4546e+00  1.2587e+01
4.4666e+00  1.2696e+01
4.4785e+00  1.2711e+01
4.4905e+00  1.2903e+01
4.5024e+00  1.3036e+01
4.5144e+00  1.3274e+01
4.5263e+00  1.3495e+01
4.5383e+00  1.3936e+01
4.5502e+00  1.4515e+01
4.5621e+00  1.5504e+01
4.5741e+00  1.7942e+01
4.5860e+00  2.5869e+01
4.5980e+00  6.6742e+01
4.6099e+00  2.4056e+02
4.6218e+00  4.1928e+02
4.6338e+00  3.1054e+02
4.6457e+00  2.0053e+02
4.6577e+00  9.8713e+01
4.6696e+00  4.3883e+01
4.6815e+00  2.3078e+01
4.6935e+00  1.7139e+01
4.7054e+00  1.4842e+01
4.7173e+00  1.4064e+01
4.7293e+00  1.3566e+01
4.7412e+00  1.3140e+01
4.7531e+00  1.2895e+01
4.7651e+00  1.2699e+01
4.7770e+00  1.2646e+01
4.7890e+00  1.2399e+01
4.8009e+00  1.2261e+01
4.8128e+00  1.2293e+01
4.8247e+00  1.2144e+01
4.8367e+00  1.2044e+01
4.8486e+00  1.2017e+01
4.8605e+00  1.1967e+01
4.8725e+00  1.1962e+01
4.8844e+00  1.1911e+01
4.8963e+00  1.1852e+01
4.9083e+00  1.1895e+01
4.9202e+00  1.1874e+01
4.9321e+00  1.1872e+01
4.9441e+00  1.1816e+01
4.9560e+00  1.1784e+01
4.9679e+00  1.1666e+01
4.9798e+00  1.1754e+01
4.9918e+00  1.1742e+01
5.0037e+00  1.1699e+01
5.0156e+00  1.1660e+01
5.0275e+00  1.1704e+01
5.0395e+00  1.1642e+01
5.0514e+00  1.1627e+01
5.0633e+00  1.1679e+01
5.0752e+00  1.1601e+01
5.0872e+00  1.1483e+01
5.0991e+00  1.1514e+01
5.1110e+00  1.1573e+01
5.1229e+00  1.1656e+01
5.1348e+00  1.1567e+01
5.1468e+00  1.1587e+01
5.1587e+00  1.1584e+01
5.1706e+00  1.1585e+01
5.1825e+00  1.1565e+01
5.1944e+00  1.1502e+01
5.2064e+00  1.1503e+01
5.2183e+00  1.1502e+01
5.2302e+00  1.1440e+01
5.2421e+00  1.1492e+01
5.2540e+00  1.1449e+01
5.2660e+00  1.1518e+01
5.2779e+00  1.1437e+01
5.2898e+00  1.1548e+01
5.3017e+00  1.1472e+01
5.3136e+00  1.1616e+01
5.3255e+00  1.1502e+01
5.3374e+00  1.1511e+01
5.3494e+00  1.1510e+01
5.3613e+00  1.1478e+01
5.3732e+00  1.1598e+01
5.3851e+00  1.1629e+01
5.3970e+00  1.1712e+01
5.4089e+00  1.1640e+01
5.4208e+00  1.1622e+01
5.4327e+00  1.1631e+01
5.4446e+00  1.1649e+01
5.4566e+00  1.1675e+01
5.4685e+00  1.1630e+01
5.4804e+00  1.1680e+01
5.4923e+00  1.1743e+01
5.5042e+00  1.1752e+01
5.5161e+00  1.1787e+01
5.5280e+00  1.1838e+01
5.5399e+00  1.1934e+01
5.5518e+00  1.2029e+01
5.5637e+00  1.2112e+01
5.5756e+00  1.2347e+01
5.5875e+00  1.2658e+01
5.5994e+00  1.3071e+01
5.6113e+00  1.4032e+01
5.6232e+00  1.6745e+01
5.6351e+00  2.9302e+01
5.6470e+00  8.2965e+01
5.6589e+00  1.7167e+02
5.6708e+00  1.4593e+02
5.6827e+00  9.9808e+01
5.6946e+00  6.0165e+01
5.7065e+00  3.3841e+01
5.7184e+00  2.0010e+01
5.7303e+00  1.5327e+01
5.7422e+00  1.3376e+01
5.7541e+00  1.2672e+01
5.7660e+00  1.2337e+01
5.7779e+00  1.2104e+01
5.7898e+00  1.1929e+01
5.8017e+00  1.1845e+01
5.8136e+00  1.1796e+01
5.8255e+00  1.1782e+01
5.8374e+00  1.1724e+01
5.8493e+00  1.1656e+01
5.8612e+00  1.1527e+01
5.8731e+00  1.1492e+01
5.8850e+00  1.1424e+01
5.8968e+00  1.1433e+01
5.9087e+00  1.1401e+01
5.9206e+00  1.1407e+01
5.9325e+00  1.1377e+01
5.9444e+00  1.1358e+01
5.9563e+00  1.1369e+01
5.9682e+00  1.1337e+01
5.9801e+00  1.1372e+01
5.9920e+00  1.1313e+01
6.0038e+00  1.1319e+01
6.0157e+00  1.1317e+01
6.0276e+00  1.1305e+01
6.0395e+00  1.1305e+01
6.0514e+00  1.1268e+01
6.0633e+00  1.1272e+01
6.0752e+00  1.1303e+01
6.0870e+00  1.1287e+01
6.0989e+00  1.1289e+01
6.1108e+00  1.1265e+01
6.1227e+00  1.1240e+01
6.1346e+00  1.1232e+01
6.1464e+00  1.1286e+01
6.1583e+00  1.1251e+01
6.1702e+00  1.1229e+01
6.1821e+00  1.1255e+01
6.1940e+00  1.1287e+01
6.2058e+00  1.1255e+01
6.2177e+00  1.1277e+01
6.2296e+00  1.1270e+01
6.2415e+00  1.1279e+01
6.2533e+00  1.1250e+01
6.2652e+00  1.1274e+01
6.2771e+00  1.1276e+01
6.2890e+00  1.1287e+01
6.3008e+00  1.1256e+01
6.3127e+00  1.1308e+01
6.3246e+00  1.1293e+01
6.3365e+00  1.1309e+01
6.3483e+00  1.1384e+01
6.3602e+00  1.1402e+01
6.3721e+00  1.1371e+01
6.3839e+00  1.1368e+01
6.3958e+00  1.1386e+01
6.4077e+00  1.1403e+01
6.4195e+00  1.1473e+01
6.4314e+00  1.1479e+01
6.4433e+00  1.1541e+01
6.4551e+00  1.1700e+01
6.4670e+00  1.1826e+01
6.4789e+00  1.2092e+01
6.4907e+00  1.2675e+01
6.5026e+00  1.4507e+01
6.5145e+00  2.4052e+01
6.5263e+00  6.7569e+01
6.5382e+00  1.1051e+02
6.5501e+00  7.9059e+01
6.5619e+00  5.9518e+01
6.5738e+00  3.6196e+01
6.5856e+00  2.1375e+01
6.5975e+00  1.5365e+01
6.6094e+00  1.3205e+01
6.6212e+00  1.2272e+01
6.6331e+00  1.1851e+01
6.6449e+00  1.1730e+01
6.6568e+00  1.1656e+01
6.6686e+00  1.1588e+01
6.6805e+00  1.1522e+01
6.6923e+00  1.1452e+01
6.7042e+00  1.1408e+01
6.7161e+00  1.1415e+01
6.7279e+00  1.1303e+01
6.7398e+00  1.1307e+01
6.7516e+00  1.1282e+01
6.7635e+00  1.1257e+01
6.7753e+00  1.1268e+01
6.7872e+00  1.1254e+01
6.7990e+00  1.1221e+01
6.8109e+00  1.1230e+01
6.8227e+00  1.1271e+01
6.8346e+00  1.1205e+01
6.8464e+00  1.1232e+01
6.8583e+00  1.1167e+01
6.8701e+00  1.1219e+01
6.8819e+00  1.1229e+01
6.8938e+00  1.1163e+01
6.9056e+00  1.1216e+01
6.9175e+00  1.1226e+01
6.9293e+00  1.1234e+01
6.9412e+00  1.1234e+01
6.9530e+00  1.1204e+01
6.9649e+00  1.1223e+01
6.9767e+00  1.1251e+01
6.9885e+00  1.1276e+01
7.0004e+00  1.1262e+01
7.0122e+00  1.1264e+01
7.0241e+00  1.1235e+01
7.0359e+00  1.1251e+01
7.0477e+00  1.1267e+01
7.0596e+00  1.1294e+01
7.0714e+00  1.1313e+01
7.0832e+00  1.1307e+01
7.0951e+00  1.1339e+01
7.1069e+00  1.1413e+01
7.1187e+00  1.1444e+01
7.1306e+00  1.1446e+01
7.1424e+00  1.1561e+01
7.1542e+00  1.1575e+01
7.1661e+00  1.1657e+01
7.1779e+00  1.1712e+01
7.1897e+00  1.1792e+01
7.2016e+00  1.1948e+01
7.2134e+00  1.2192e+01
7.2252e+00  1.2438e+01
7.2370e+00  1.2726e+01
7.2489e+00  1.3163e+01
7.2607e+00  1.4312e+01
7.2725e+00  1.7716e+01
7.2844e+00  3.2787e+01
7.2962e+00  9.8620e+01
7.3080e+00  2.0192e+02
7.3198e+00  1.7714e+02
7.3316e+00  1.2605e+02
7.3435e+00  8.7318e+01
7.3553e+00  4.9770e+01
7.3671e+00  2.7784e+01
7.3789e+00  1.8825e+01
7.3908e+00  1.4773e+01
7.4026e+00  1.3205e+01
7.4144e+00  1.2486e+01
7.4262e+00  1.2144e+01
7.4380e+00  1.1989e+01
7.4498e+00  1.1788e+01
7.4617e+00  1.1609e+01
7.4735e+00  1.1568e+01
7.4853e+00  1.1449e+01
7.4971e+00  1.1423e+01
7.5089e+00  1.1358e+01
7.5207e+00  1.1349e+01
7.5325e+00  1.1312e+01
7.5444e+00  1.1254e+01
7.5562e+00  1.1184e+01
7.5680e+00  1.1211e+01
7.5798e+00  1.1212e+01
7.5916e+00  1.1143e+01
7.6034e+00  1.1174e+01
7.6152e+00  1.1132e+01
7.6270e+00  1.1127e+01
7.6388e+00  1.1138e+01
7.6506e+00  1.1115e+01
7.6624e+00  1.1121e+01
7.6742e+00  1.1129e+01
7.6860e+00  1.1081e+01
7.6978e+00  1.1074e+01
7.7096e+00  1.1047e+01
7.7214e+00  1.1109e+01
7.7332e+00  1.1110e+01
7.7451e+00  1.1051e+01
7.7569e+00  1.1113e+01
7.7686e+00  1.1095e+01
7.7804e+00  1.1103e+01
7.7922e+00  1.1130e+01
7.8040e+00  1.1124e+01
7.8158e+00  1.1149e+01
7.8276e+00  1.1198e+01
7.8394e+00  1.1190e+01
7.8512e+00  1.1194e+01
7.8630e+00  1.1231e+01
7.8748e+00  1.1265e+01
7.8866e+00  1.1352e+01
7.8984e+00  1.1427e+01
7.9102e+00  1.1502e+01
7.9220e+00  1.1630e+01
7.9338e+00  1.1823e+01
7.9456e+00  1.2079e+01
7.9573e+00  1.2652e+01
7.9691e+00  1.4221e+01
7.9809e+00  2.0217e+01
7.9927e+00  4.6786e+01
8.0045e+00  1.0126e+02
8.0163e+00  1.0517e+02
8.0281e+00  7.5616e+01
8.0398e+00  5.4875e+01
8.0516e+00  3.6556e+01
8.0634e+00  2.3677e+01
8.0752e+00  1.6574e+01
8.0870e+00  1.3598e+01
8.0988e+00  1.2319e+01
8.1105e+00  1.1868e+01
8.1223e+00  1.1567e+01
8.1341e+00  1.1421e+01
8.1459e+00  1.1316e+01
8.1576e+00  1.1233e+01
8.1694e+00  1.1199e+01
8.1812e+00  1.1163e+01
8.1930e+00  1.1166e+01
8.2047e+00  1.1047e+01
8.2165e+00  1.1036e+01
8.2283e+00  1.1031e+01
8.2401e+00  1.1036e+01
8.2518e+00  1.1028e+01
8.2636e+00  1.0968e+01
8.2754e+00  1.0923e+01
8.2871e+00  1.0962e+01
8.2989e+00  1.0932e+01
8.3107e+00  1.0927e+01
8.3224e+00  1.0909e+01
8.3342e+00  1.0915e+01
8.3460e+00  1.0900e+01
8.3577e+00  1.0914e+01
8.3695e+00  1.0904e+01
8.3813e+00  1.0865e+01
8.3930e+00  1.0855e+01
8.4048e+00  1.0872e+01
8.4166e+00  1.0867e+01
8.4283e+00  1.0895e+01
8.4401e+00  1.0859e+01
8.4518e+00  1.0853e+01
8.4636e+00  1.0878e+01
8.4754e+00  1.0881e+01
8.4871e+00  1.0831e+01
8.4989e+00  1.0887e+01
8.5106e+00  1.0860e+01
8.5224e+00  1.0865e+01
8.5341e+00  1.0865e+01
8.5459e+00  1.0860e+01
8.5576e+00  1.0856e+01
8.5694e+00  1.0865e+01
8.5811e+00  1.0889e+01
8.5929e+00  1.0891e+01
8.6046e+00  1.0853e+01
8.6164e+00  1.0865e+01
8.6281e+00  1.0853e+01
8.6399e+00  1.0897e+01
8.6516e+00  1.0886e+01
8.6634e+00  1.0877e+01
8.6751e+00  1.0854e+01
8.6869e+00  1.0854e+01
8.6986e+00  1.0850e+01
8.7104e+00  1.0893e+01
8.7221e+00  1.0866e+01
8.7339e+00  1.0841e+01
8.7456e+00  1.0852e+01
8.7573e+00  1.0833e+01
8.7691e+00  1.0902e+01
8.7808e+00  1.0859e+01
8.7926e+00  1.0840e+01
8.8043e+00  1.0888e+01
8.8160e+00  1.0887e+01
8.8278e+00  1.0851e+01
8.8395e+00  1.0876e+01
8.8512e+00  1.0828e+01
8.8630e+00  1.0865e+01
8.8747e+00  1.0907e+01
8.8864e+00  1.0859e+01
8.8982e+00  1.0876e+01
8.9099e+00  1.0880e+01
8.9216e+00  1.0830e+01
8.9334e+00  1.0853e+01
8.9451e+00  1.0849e+01
8.9568e+00  1.0938e+01
8.9685e+00  1.0877e+01
8.9803e+00  1.0905e+01
8.9920e+00  1.0912e+01
9.0037e+00  1.0918e+01
9.0154e+00  1.0904e+01
9.0272e+00  1.0834e+01
9.0389e+00  1.0965e+01
9.0506e+00  1.0921e+01
9.0623e+00  1.0929e+01
9.0740e+00  1.0963e+01
9.0858e+00  1.0937e+01
9.0975e+00  1.0996e+01
9.1092e+00  1.1014e+01
9.1209e+00  1.1036e+01
9.1326e+00  1.1047e+01
9.1444e+00  1.1091e+01
9.1561e+00  1.1163e+01
9.1678e+00  1.1192e+01
9.1795e+00  1.1293e+01
9.1912e+00  1.1428e+01
9.2029e+00  1.1727e+01
9.2146e+00  1.2755e+01
9.2263e+00  1.6660e+01
9.2381e+00  3.0226e+01
9.2498e+00  4.7309e+01
9.2615e+00  4.7673e+01
9.2732e+00  3.5727e+01
9.2849e+00  2.6269e+01
9.2966e+00  1.8389e+01
9.3083e+00  1.4321e+01
9.3200e+00  1.2647e+01
9.3317e+00  1.1755e+01
9.3434e+00  1.1436e+01
9.3551e+00  1.1257e+01
9.3668e+00  1.1155e+01
9.3785e+00  1.1126e+01
9.3902e+00  1.1072e+01
9.4019e+00  1.1102e+01
9.4136e+00  1.1047e+01
9.4253e+00  1.1062e+01
9.4370e+00  1.1020e+01
9.4487e+00  1.1089e+01
9.4604e+00  1.1036e+01
9.4721e+00  1.1049e+01
9.4838e+00  1.1015e+01
9.4955e+00  1.0994e+01
9.5072e+00  1.1048e+01
9.5188e+00  1.1026e+01
9.5305e+00  1.1027e+01
9.5422e+00  1.1052e+01
9.5539e+00  1.1054e+01
9.5656e+00  1.1087e+01
9.5773e+00  1.1056e+01
9.5890e+00  1.1080e+01
9.6007e+00  1.1119e+01
9.6123e+00  1.1178e+01
9.6240e+00  1.1193e+01
9.6357e+00  1.1158e+01
9.6474e+00  1.1212e+01
9.6591e+00  1.1235e+01
9.6708e+00  1.1338e+01
9.6824e+00  1.1332e+01
9.6941e+00  1.1423e+01
9.7058e+00  1.1487e+01
9.7175e+00  1.1636e+01
9.7291e+00  1.1883e+01
9.7408e+00  1.2082e+01
9.7525e+00  1.2534e+01
9.7642e+00  1.3480e+01
9.7758e+00  1.6346e+01
9.7875e+00  2.7211e+01
9.7992e+00  6.3869e+01
9.8109e+00  1.0929e+02
9.8225e+00  1.1461e+02
9.8342e+00  9.2012e+01
9.8459e+00  6.1121e+01
9.8575e+00  3.7570e+01
9.8692e+00  2.3546e+01
9.8809e+00  1.6635e+01
9.8925e+00  1.3804e+01
9.9042e+00  1.2527e+01
9.9159e+00  1.2106e+01
9.9275e+00  1.1833e+01
9.9392e+00  1.1572e+01
9.9508e+00  1.1502e+01
9.9625e+00  1.1389e+01
9.9742e+00  1.1319e+01
9.9858e+00  1.1235e+01
9.9975e+00  1.1222e+01
1.0009e+01  1.1175e+01
1.0021e+01  1.1159e+01
1.0032e+01  1.1180e+01
1.0044e+01  1.1109e+01
1.0056e+01  1.1096e+01
1.0067e+01  1.1124e+01
1.0079e+01  1.1118e+01
1.0091e+01  1.1105e+01
1.0102e+01  1.1124e+01
1.0114e+01  1.1112e+01
1.0126e+01  1.1134e+01
1.0137e+01  1.1126e+01
1.0149e+01  1.1082e+01
1.0161e+01  1.1098e+01
1.0172e+01  1.1133e+01
1.0184e+01  1.1139e+01
1.0196e+01  1.1146e+01
1.0207e+01  1.1175e+01
1.0219e+01  1.1262e+01
1.0230e+01  1.1305e+01
1.0242e+01  1.1339e+01
1.0254e+01  1.1407e+01
1.0265e+01  1.1527e+01
1.0277e+01  1.1832e+01
1.0289e+01  1.2161e+01
1.0300e+01  1.3039e+01
1.0312e+01  1.6128e+01
1.0324e+01  2.8397e+01
1.0335e+01  5.8617e+01
1.0347e+01  8.6825e+01
1.0358e+01  8.5757e+01
1.0370e+01  6.4366e+01
1.0382e+01  4.1347e+01
1.0393e+01  2.5290e+01
1.0405e+01  1.7690e+01
1.0417e+01  1.4195e+01
1.0428e+01  1.2514e+01
1.0440e+01  1.1883e+01
1.0451e+01  1.1598e+01
1.0463e+01  1.1448e+01
1.0475e+01  1.1316e+01
1.0486e+01  1.1300e+01
1.0498e+01  1.1220e+01
1.0510e+01  1.1176e+01
1.0521e+01  1.1146e+01
1.0533e+01  1.1117e+01
1.0544e+01  1.1076e+01
1.0556e+01  1.1101e+01
1.0568e+01  1.1023e+01
1.0579e+01  1.1061e+01
1.0591e+01  1.1034e+01
1.0602e+01  1.1007e+01
1.0614e+01  1.1053e+01
1.0626e+01  1.1028e+01
1.0637e+01  1.1038e+01
1.0649e+01  1.1004e+01
1.0661e+01  1.1036e+01
1.0672e+01  1.1007e+01
1.0684e+01  1.1018e+01
1.0695e+01  1.1035e+01
1.0707e+01  1.1080e+01
1.0719e+01  1.1051e+01
1.0730e+01  1.1111e+01
1.0742e+01  1.1193e+01
1.0753e+01  1.1226e+01
1.0765e+01  1.1261e+01
1.0777e+01  1.1369e+01
1.0788e+01  1.1512e+01
1.0800e+01  1.1906e+01
1.0811e+01  1.2811e+01
1.0823e+01  1.6586e+01
1.0835e+01  2.8905e+01
1.0846e+01  4.7677e+01
1.0858e+01  5.8744e+01
1.0869e+01  5.2739e+01
1.0881e+01  3.9024e+01
1.0893e+01  2.5757e+01
1.0904e+01  1.8347e+01
1.0916e+01  1.4215e+01
1.0927e+01  1.2433e+01
1.0939e+01  1.1719e+01
1.0950e+01  1.1416e+01
1.0962e+01  1.1230e+01
1.0974e+01  1.1198e+01
1.0985e+01  1.1168e+01
1.0997e+01  1.1110e+01
1.1008e+01  1.1087e+01
1.1020e+01  1.1027e+01
1.1032e+01  1.1043e+01
1.1043e+01  1.1019e+01
1.1055e+01  1.0990e+01
1.1066e+01  1.0960e+01
1.1078e+01  1.0957e+01
1.1089e+01  1.0873e+01
1.1101e+01  1.0925e+01
1.1113e+01  1.0862e+01
1.1124e+01  1.0917e+01
1.1136e+01  1.0769e+01
1.1147e+01  1.0914e+01
1.1159e+01  1.0777e+01
1.1170e+01  1.0914e+01
1.1182e+01  1.0930e+01
1.1194e+01  1.0895e+01
1.1205e+01  1.0881e+01
1.1217e+01  1.0915e+01
1.1228e+01  1.0918e+01
1.1240e+01  1.0926e+01
1.1251e+01  1.0921e+01
1.1263e+01  1.0926e+01
1.1275e+01  1.1016e+01
1.1286e+01  1.1033e+01
1.1298e+01  1.1288e+01
1.1309e+01  1.2017e+01
1.1321e+01  1.4039e+01
1.1332e+01  1.6798e+01
1.1344e+01  1.8013e+01
1.1355e+01  1.6805e+01
1.1367e+01  1.4906e+01
1.1379e+01  1.2967e+01
1.1390e+01  1.1787e+01
1.1402e+01  1.1313e+01
1.1413e+01  1.1103e+01
1.1425e+01  1.0987e+01
1.1436e+01  1.0967e+01
1.1448e+01  1.0798e+01
1.1459e+01  1.0920e+01
1.1471e+01  1.0918e+01
1.1482e+01  1.0805e+01
1.1494e+01  1.0782e+01
1.1506e+01  1.0780e+01
1.1517e+01  1.0773e+01
1.1529e+01  1.0770e+01
1.1540e+01  1.0742e+01
1.1552e+01  1.0768e+01
1.1563e+01  1.0895e+01
1.1575e+01  1.0767e+01
1.1586e+01  1.0767e+01
1.1598e+01  1.0812e+01
1.1609e+01  1.0782e+01
1.1621e+01  1.0803e+01
1.1632e+01  1.0762e+01
1.1644e+01  1.0854e+01
1.1655e+01  1.0945e+01
1.1667e+01  1.0935e+01
1.1679e+01  1.0923e+01
1.1690e+01  1.0980e+01
1.1702e+01  1.1097e+01
1.1713e+01  1.1064e+01
1.1725e+01  1.1092e+01
1.1736e+01  1.1173e+01
1.1748e+01  1.1431e+01
1.1759e+01  1.2105e+01
1.1771e+01  1.4380e+01
1.1782e+01  2.1276e+01
1.1794e+01  3.1210e+01
1.1805e+01  3.8181e+01
1.1817e+01  3.7281e+01
1.1828e+01  2.9085e+01
1.1840e+01  2.1561e+01
1.1851e+01  1.6149e+01
1.1863e+01  1.3368e+01
1.1874e+01  1.2049e+01
1.1886e+01  1.1551e+01
1.1897e+01  1.1255e+01
1.1909e+01  1.1099e+01
1.1920e+01  1.1084e+01
1.1932e+01  1.1039e+01
1.1943e+01  1.1031e+01
1.1955e+01  1.1005e+01
1.1966e+01  1.0977e+01
1.1978e+01  1.0947e+01
1.1989e+01  1.0969e+01
1.2001e+01  1.0969e+01
1.2012e+01  1.0955e+01
1.2024e+01  1.0943e+01
1.2035e+01  1.0992e+01
1.2047e+01  1.0832e+01
1.2058e+01  1.0973e+01
1.2070e+01  1.0973e+01
1.2081e+01  1.1045e+01
1.2093e+01  1.1027e+01
1.2104e+01  1.1010e+01
1.2116e+01  1.1084e+01
1.2127e+01  1.1131e+01
1.2139e+01  1.1221e+01
1.2150e+01  1.1259e+01
1.2162e+01  1.1367e+01
1.2173e+01  1.1513e+01
1.2185e+01  1.1788e+01
1.2196e+01  1.2307e+01
1.2208e+01  1.3904e+01
1.2219e+01  1.9377e+01
1.2231e+01  3.3563e+01
1.2242e+01  5.3318e+01
1.2254e+01  6.5206e+01
1.2265e+01  6.1601e+01
1.2277e+01  4.7439e+01
1.2288e+01  3.1974e+01
1.2300e+01  2.1400e+01
1.2311e+01  1.5970e+01
1.2323e+01  1.3454e+01
1.2334e+01  1.2280e+01
1.2345e+01  1.1800e+01
1.2357e+01  1.1461e+01
1.2368e+01  1.1268e+01
1.2380e+01  1.1263e+01
1.2391e+01  1.1139e+01
1.2403e+01  1.1125e+01
1.2414e+01  1.1059e+01
1.2426e+01  1.1062e+01
1.2437e+01  1.1058e+01
1.2449e+01  1.1038e+01
1.2460e+01  1.0865e+01
1.2472e+01  1.0833e+01
1.2483e+01  1.0838e+01
1.2495e+01  1.0819e+01
1.2506e+01  1.0827e+01
1.2517e+01  1.0831e+01
1.2529e+01  1.0797e+01
1.2540e+01  1.0790e+01
1.2552e+01  1.0816e+01
1.2563e+01  1.0785e+01
1.2575e+01  1.0768e+01
1.2586e+01  1.0813e+01
1.2598e+01  1.0773e+01
1.2609e+01  1.0799e+01
1.2620e+01  1.0824e+01
1.2632e+01  1.0787e+01
1.2643e+01  1.0807e+01
1.2655e+01  1.0753e+01
1.2666e+01  1.0793e+01
1.2678e+01  1.0745e+01
1.2689e+01  1.0799e+01
1.2700e+01  1.0819e+01
1.2712e+01  1.0758e+01
1.2723e+01  1.0756e+01
1.2735e+01  1.0798e+01
1.2746e+01  1.0760e+01
1.2758e+01  1.0785e+01
1.2769e+01  1.0752e+01
1.2780e+01  1.0810e+01
1.2792e+01  1.0772e+01
1.2803e+01  1.0749e+01
1.2815e+01  1.0748e+01
1.2826e+01  1.0736e+01
1.2838e+01  1.0749e+01
1.2849e+01  1.0784e+01
1.2860e+01  1.0786e+01
1.2872e+01  1.0812e+01
1.2883e+01  1.0754e+01
1.2895e+01  1.0757e+01
1.2906e+01  1.0783e+01
1.2917e+01  1.0769e+01
1.2929e+01  1.0780e+01
1.2940e+01  1.0754e+01
1.2952e+01  1.0771e+01
1.2963e+01  1.0776e+01
1.2974e+01  1.0835e+01
1.2986e+01  1.0801e+01
1.2997e+01  1.0898e+01
1.3009e+01  1.0853e+01
1.3020e+01  1.0862e+01
1.3031e+01  1.0838e+01
1.3043e+01  1.1031e+01
1.3054e+01  1.1209e+01
1.3066e+01  1.1867e+01
1.3077e+01  1.3403e+01
1.3088e+01  1.5950e+01
1.3100e+01  1.8181e+01
1.3111e+01  1.8167e+01
1.3122e+01  1.7160e+01
1.3134e+01  1.4915e+01
1.3145e+01  1.3303e+01
1.3157e+01  1.1971e+01
1.3168e+01  1.1379e+01
1.3179e+01  1.1093e+01
1.3191e+01  1.0933e+01
1.3202e+01  1.0909e+01
1.3213e+01  1.0833e+01
1.3225e+01  1.0878e+01
1.3236e+01  1.0871e+01
1.3247e+01  1.0815e+01
1.3259e+01  1.0823e+01
1.3270e+01  1.0880e+01
1.3282e+01  1.0857e+01
1.3293e+01  1.0818e+01
1.3304e+01  1.0825e+01
1.3316e+01  1.0907e+01
1.3327e+01  1.0838e+01
1.3338e+01  1.0901e+01
1.3350e+01  1.0963e+01
1.3361e+01  1.1066e+01
1.3372e+01  1.1054e+01
1.3384e+01  1.1092e+01
1.3395e+01  1.1150e+01
1.3406e+01  1.1238e+01
1.3418e+01  1.1278e+01
1.3429e+01  1.1438e+01
1.3440e+01  1.1591e+01
1.3452e+01  1.2132e+01
1.3463e+01  1.3677e+01
1.3474e+01  1.8819e+01
1.3486e+01  2.8741e+01
1.3497e+01  4.1794e+01
1.3508e+01  5.0667e+01
1.3520e+01  4.8670e+01
1.3531e+01  3.9323e+01
1.3542e+01  2.8636e+01
1.3553e+01  2.0617e+01
1.3565e+01  1.5456e+01
1.3576e+01  1.3290e+01
1.3587e+01  1.2099e+01
1.3599e+01  1.1605e+01
1.3610e+01  1.1399e+01
1.3621e+01  1.1307e+01
1.3633e+01  1.1182e+01
1.3644e+01  1.1119e+01
1.3655e+01  1.1141e+01
1.3666e+01  1.1103e+01
1.3678e+01  1.1045e+01
1.3689e+01  1.0963e+01
1.3700e+01  1.0946e+01
1.3712e+01  1.0929e+01
1.3723e+01  1.0971e+01
1.3734e+01  1.0930e+01
1.3745e+01  1.0923e+01
1.3757e+01  1.0930e+01
1.3768e+01  1.1056e+01
1.3779e+01  1.1063e+01
1.3790e+01  1.1109e+01
1.3802e+01  1.1125e+01
1.3813e+01  1.1233e+01
1.3824e+01  1.1326e+01
1.3836e+01  1.1561e+01
1.3847e+01  1.1979e+01
1.3858e+01  1.3623e+01
1.3869e+01  1.8325e+01
1.3881e+01  2.7852e+01
1.3892e+01  3.7467e+01
1.3903e+01  4.3102e+01
1.3914e+01  4.1476e+01
1.3926e+01  3.3343e+01
1.3937e+01  2.4980e+01
1.3948e+01  1.8565e+01
1.3959e+01  1.4989e+01
1.3971e+01  1.2998e+01
1.3982e+01  1.1895e+01
1.3993e+01  1.1475e+01
1.4004e+01  1.1280e+01
1.4015e+01  1.1126e+01
1.4027e+01  1.1030e+01
1.4038e+01  1.0935e+01
1.4049e+01  1.0966e+01
1.4060e+01  1.0927e+01
1.4072e+01  1.0830e+01
1.4083e+01  1.0851e+01
1.4094e+01  1.0879e+01
1.4105e+01  1.0795e+01
1.4116e+01  1.0815e+01
1.4128e+01  1.0747e+01
1.4139e+01  1.0792e+01
1.4150e+01  1.0883e+01
1.4161e+01  1.0799e+01
1.4172e+01  1.0867e+01
1.4184e+01  1.0900e+01
1.4195e+01  1.0868e+01
1.4206e+01  1.0972e+01
1.4217e+01  1.1026e+01
1.4228e+01  1.1238e+01
1.4240e+01  1.1878e+01
1.4251e+01  1.3785e+01
1.4262e+01  1.6601e+01
1.4273e+01  1.9684e+01
1.4284e+01  2.1582e+01
1.4296e+01  2.1078e+01
1.4307e+01  1.8681e+01
1.4318e+01  1.5812e+01
1.4329e+01  1.3991e+01
1.4340e+01  1.2660e+01
1.4351e+01  1.1750e+01
1.4363e+01  1.1279e+01
1.4374e+01  1.1096e+01
1.4385e+01  1.0872e+01
1.4396e+01  1.0855e+01
1.4407e+01  1.0835e+01
1.4418e+01  1.0817e+01
1.4429e+01  1.0782e+01
1.4441e+01  1.0837e+01
1.4452e+01  1.0767e+01
1.4463e+01  1.0725e+01
1.4474e+01  1.0749e+01
1.4485e+01  1.0794e+01
1.4496e+01  1.0826e+01
1.4507e+01  1.0830e+01
1.4519e+01  1.0745e+01
1.4530e+01  1.0735e+01
1.4541e+01  1.0807e+01
1.4552e+01  1.0869e+01
1.4563e+01  1.0804e+01
1.4574e+01  1.0841e+01
1.4585e+01  1.0985e+01
1.4597e+01  1.1191e+01
1.4608e+01  1.1695e+01
1.4619e+01  1.3156e+01
1.4630e+01  1.6917e+01
1.4641e+01  2.2174e+01
1.4652e+01  2.6261e+01
1.4663e+01  2.5484e+01
1.4674e+01  2.3026e+01
1.4685e+01  2.0247e+01
1.4697e+01  1.6937e+01
1.4708e+01  1.4237e+01
1.4719e+01  1.2588e+01
1.4730e+01  1.1733e+01
1.4741e+01  1.1337e+01
1.4752e+01  1.0970e+01
1.4763e+01  1.0942e+01
1.4774e+01  1.0808e+01
1.4785e+01  1.0793e+01
1.4796e+01  1.0797e+01
1.4807e+01  1.0826e+01
1.4818e+01  1.0747e+01
1.4830e+01  1.0850e+01
1.4841e+01  1.0781e+01
1.4852e+01  1.0830e+01
1.4863e+01  1.0715e+01
1.4874e+01  1.0809e+01
1.4885e+01  1.0803e+01
1.4896e+01  1.0806e+01
1.4907e+01  1.0906e+01
1.4918e+01  1.0976e+01
1.4929e+01  1.0878e+01
1.4940e+01  1.1149e+01
1.4951e+01  1.1246e+01
1.4962e+01  1.1832e+01
1.4973e+01  1.3146e+01
1.4984e+01  1.7129e+01
1.4995e+01  2.4345e+01
1.5006e+01  3.1923e+01
1.5017e+01  3.6347e+01
1.5028e+01  3.5817e+01
1.5040e+01  3.2298e+01
1.5051e+01  2.7511e+01
1.5062e+01  2.1899e+01
1.5073e+01  1.7241e+01
1.5084e+01  1.4321e+01
1.5095e+01  1.2699e+01
1.5106e+01  1.1723e+01
1.5117e+01  1.1368e+01
1.5128e+01  1.1174e+01
1.5139e+01  1.0950e+01
1.5150e+01  1.0818e+01
1.5161e+01  1.0812e+01
1.5172e+01  1.0699e+01
1.5183e+01  1.0693e+01
1.5194e+01  1.0692e+01
1.5205e+01  1.0632e+01
1.5216e+01  1.0687e+01
1.5227e+01  1.0713e+01
1.5238e+01  1.0687e+01
1.5249e+01  1.0643e+01
1.5260e+01  1.0703e+01
1.5271e+01  1.0744e+01
1.5282e+01  1.0672e+01
1.5293e+01  1.0810e+01
1.5304e+01  1.0788e+01
1.5315e+01  1.0912e+01
1.5326e+01  1.1581e+01
1.5337e+01  1.3016e+01
1.5348e+01  1.5443e+01
1.5358e+01  1.8460e+01
1.5369e+01  2.0512e+01
1.5380e+01  2.1579e+01
1.5391e+01  2.0922e+01
1.5402e+01  1.8288e+01
1.5413e+01  1.6132e+01
1.5424e+01  1.4151e+01
1.5435e+01  1.2937e+01
1.5446e+01  1.1955e+01
1.5457e+01  1.1327e+01
1.5468e+01  1.0903e+01
1.5479e+01  1.0657e+01
1.5490e+01  1.0652e+01
1.5501e+01  1.0571e+01
1.5512e+01  1.0319e+01
1.5523e+01  1.0438e+01
1.5534e+01  1.0629e+01
1.5545e+01  1.0398e+01
1.5555e+01  1.0504e+01
1.5566e+01  1.0368e+01
1.5577e+01  1.0493e+01
1.5588e+01  1.0335e+01
1.5599e+01  1.0421e+01
1.5610e+01  1.0404e+01
1.5621e+01  1.0455e+01
1.5632e+01  1.0381e+01
1.5643e+01  1.0477e+01
1.5654e+01  1.0404e+01
1.5665e+01  1.0393e+01
1.5675e+01  1.0484e+01
1.5686e+01  1.0350e+01
1.5697e+01  1.0399e+01
1.5708e+01  1.0294e+01
1.5719e+01  1.0245e+01
1.5730e+01  1.0458e+01
1.5741e+01  1.0415e+01
1.5752e+01  1.0491e+01
1.5763e+01  1.0405e+01
1.5773e+01  1.0390e+01
1.5784e+01  1.0510e+01
1.5795e+01  1.0227e+01
1.5806e+01  1.0251e+01
1.5817e+01  1.0222e+01
1.5828e+01  1.0122e+01
1.5839e+01  1.0204e+01
1.5850e+01  1.0352e+01
1.5860e+01  1.0496e+01
1.5871e+01  1.0257e+01
1.5882e+01  1.0264e+01
1.5893e+01  1.0290e+01
1.5904e+01  1.0585e+01
1.5915e+01  1.0467e+01
1.5926e+01  1.0271e+01
1.5936e+01  1.0227e+01
1.5947e+01  1.0387e+01
1.5958e+01  1.0312e+01
1.5969e+01  1.0491e+01
1.5980e+01  1.0365e+01
1.5991e+01  1.0558e+01
1.6001e+01  1.0827e+01
1.6012e+01  1.0437e+01
1.6023e+01  1.0385e+01
1.6034e+01  1.1384e+01
1.6045e+01  1.2034e+01
1.6056e+01  1.2335e+01
1.6066e+01  1.4051e+01
1.6077e+01  1.4753e+01
1.6088e+01  1.5792e+01
1.6099e+01  1.6842e+01
1.6110e+01  1.4831e+01
1.6120e+01  1.5890e+01
1.6131e+01  1.1301e+01
1.6142e+01  1.2714e+01
1.6153e+01  0.0000e+00
1.6164e+01  0.0000e+00
1.6174e+01  0.0000e+00
1.6185e+01  0.0000e+00
1.6196e+01  0.0000e+00
1.6207e+01  0.0000e+00
1.6218e+01  0.0000e+00
1.6228e+01  0.0000e+00
1.6239e+01  0.0000e+00
1.6250e+01  0.0000e+00
1.6261e+01  0.0000e+00
1.6271e+01  0.0000e+00
1.6282e+01  0.0000e+00
1.6293e+01  0.0000e+00
1.6304e+01  0.0000e+00
1.6314e+01  0.0000e+00
1.6341e+01  0.0000e+00