File: _jupyter-notebooks/calc_feff/v3/Ni-foil_manual/Ni-RT.nor
# XDI/1.0 Demeter/0.9.26
# Demeter.output_filetype: multicolumn normalized mu(E)
# Element.symbol: Ni
# Element.edge: K
# Column.1: energy eV
# Column.2: Ni-foil.dat
# Column.3: A2-Ni-RT.dat
# Column.4: A4-Ni-RT.dat
# Column.5: A6-Ni-RT.dat
# Column.6: A7-Ni-RT.dat
# Column.7: B4-Ni-RT.dat
# Column.8: C3-Ni-RT.dat
#------------------------
#  energy  Ni-foil.dat  A2-Ni-RT.dat  A4-Ni-RT.dat  A6-Ni-RT.dat  A7-Ni-RT.dat  B4-Ni-RT.dat  C3-Ni-RT.dat
  8138.9       0.141047       0.0740441   0.0213911   0.135932       0.0846692   0.080081   0.00983559
  8146.9       0.11775       0.0703933   0.0174408   0.114303       0.060306   0.0734324   0.0089997
  8154.9       0.0542148   0.000401846   0.0036083   0.0156271   0.0266277   0.000850085   0.00798791
  8162.9       0.0727157   0.0475549   0.0155849   0.106169       0.0231259   0.0541672   0.00745803
  8170.9       0.068446   0.0473569   0.0117785   0.0834074   0.0341057   0.0554762   0.00667515
  8178.9       0.0607451   0.0498717   0.0146404   0.0799072   0.0378838   0.0530906   0.00593243
  8186.9       0.0589708   0.0548527   0.0148158   0.0866044   0.0348908   0.0597993   0.00521782
  8194.9       0.0487745   0.0531749   0.0129763   0.0865033   0.0313107   0.056277   0.00449196
  8202.9       0.0401379   0.0384263   0.0115206   0.0580762   0.0279654   0.0422393   0.00374201
  8210.9       0.02807   0.0320628   0.00833794   0.046267   0.0142482   0.0333171   0.00303785
  8218.9       0.0200572   0.0168209   0.00525121   0.0216167   0.0200615   0.0147323   0.00232324
  8226.9       0.00736556   9.93735e-05   0.000821244  -0.0022783  -3.53981e-05  -0.00214736   0.00164477
  8234.9      -0.000335319  -0.00897697  -0.00116213  -0.0121991  -0.00565075  -0.0105011   0.0010402
  8242.9       7.38528e-05  -0.00498245  -0.00108269  -0.00625728  -0.00249888  -0.00492915   0.000531206
  8250.9       0.00235457   0.0143025   0.000675775   0.0163025   0.00488005   0.0145685   0.000125826
  8258.9       0.00245182  -0.00118595   0.0014748  -0.0015496   0.00705344   0.000530781  -0.000285176
  8266.9       5.36694e-05   0.00182209   6.70907e-05   0.00401452  -0.00494164   0.00297655  -0.00053072
  8274.9       0.000150917  -0.00182862   0.000338417  -0.000241049  -0.00327706  -0.00537718  -0.000630885
  8282.9      -0.00661418   0.00167266  -0.00102132   0.00116859  -0.00446966   0.00246834  -0.000433868
  8290.9       0.00221696  -0.00247128  -0.000126351  -0.00648611   0.00878018  -0.00247503   0.000112538
  8298.9       0.00356191   4.35213e-05   0.000288892   0.00209946  -0.00188416   0.000823337   0.00134568
  8312.2       0.0206026   0.0097425   0.00371905   0.0125017   0.0114386   0.00953251   0.00668343
  8312.6       0.021746   0.00974493   0.0032433   0.0106649   0.0111989   0.00708281   0.00697022
  8313       0.0185224   0.00851426   0.00343916   0.014871   0.00947197   0.00662249   0.00723934
  8313.4       0.0255924   0.00950317   0.00301138   0.0115235   0.00978025   0.00644637   0.00754943
  8313.8       0.0120753   0.00851912   0.00359102   0.0142189   0.0119672   0.00683865   0.00784747
  8314.2       0.0169618   0.0107411   0.00316324   0.0199357   0.00851812   0.00524154   0.0081704
  8314.6       0.0168575   0.00827736   0.00427058   0.0124336   0.0107442   0.00677061   0.00850378
  8315       0.0151936   0.00827979   0.00432252   0.0189058   0.0137923   0.0048893   0.00887089
  8315.4       0.02008   0.0102552   0.00456636   0.00913772   0.0117522   0.00613417   0.00923158
  8315.8       0.0159207   0.0107508   0.00505005   0.0137215   0.016992   0.00567386   0.00966937
  8316.2       0.0239265   0.0114931   0.00505402   0.0152838   0.0173786   0.00720292   0.0100911
  8316.6       0.0288129   0.0127287   0.00510597   0.0153354   0.0172172   0.0070268   0.0105305
  8317       0.0240298   0.0127311   0.0053498   0.01652   0.0179951   0.00997686   0.0109828
  8317.4       0.0279805   0.0124869   0.0058335   0.0143056   0.0204952   0.00951654   0.0114719
  8317.8       0.020078   0.0134758   0.00674894   0.0166232   0.0184551   0.00877203   0.0119644
  8318.2       0.0162306   0.0112587   0.00689683   0.0215847   0.0190374   0.0105853   0.012472
  8318.6       0.0261079   0.0112611   0.00714067   0.0246577   0.0190326   0.0104092   0.0130528
  8319       0.0250678   0.0100304   0.00714464   0.025087   0.0234896   0.0108014   0.0136488
  8319.4       0.0277708   0.0102795   0.0073405   0.0198511   0.0306082   0.0117621   0.0142175
  8319.8       0.0261069   0.0112684   0.00705664   0.0229241   0.0288812   0.0132912   0.0148874
  8320.2       0.0319292   0.0110242   0.00754033   0.0305293   0.0296591   0.0142519   0.0155485
  8320.6       0.0315129   0.0120131   0.00811997   0.0264264   0.0309851   0.0154967   0.0162538
  8321       0.0323444   0.0122622   0.00821989   0.026478   0.0326241   0.0161732   0.0170619
  8321.4       0.0319282   0.0147308   0.0083198   0.0250189   0.0326192   0.0188391   0.0178715
  8321.8       0.0361908   0.0139934   0.00909133   0.0246928   0.0379374   0.0186629   0.0187053
  8322.2       0.0370222   0.0167086   0.00947908   0.0349418   0.0407897   0.021613   0.0196379
  8322.6       0.036606   0.0162178   0.00996278   0.0297059   0.0431724   0.0217211   0.0206877
  8323       0.0380613   0.0172067   0.0109262   0.0335343   0.044694   0.0243869   0.0217255
  8323.4       0.0410763   0.0184422   0.0117937   0.0350966   0.0470375   0.0253476   0.0228701
  8323.8       0.045027   0.0216507   0.0124213   0.0464786   0.0487939   0.0285818   0.0241384
  8324.2       0.0508492   0.022393   0.0132888   0.0469079   0.0567344   0.0321003   0.025495
  8324.6       0.054488   0.024615   0.0141562   0.0465818   0.0560642   0.0364713   0.0270027
  8325       0.0584387   0.0290566   0.0155514   0.0568308   0.0627522   0.0411266   0.0286444
  8325.4       0.0708114   0.0315253   0.0173303   0.0587708   0.068266   0.0437924   0.0305569
  8325.8       0.083496   0.0362135   0.0189654   0.0709082   0.07832   0.0501529   0.03283
  8326.2       0.0927495   0.0441077   0.0216078   0.0875777   0.0902527   0.0610604   0.0355874
  8326.6       0.113856       0.0576743   0.0254016   0.108402       0.109857       0.0756626   0.0391288
  8327       0.143073       0.0739536   0.0304907   0.145844       0.133296       0.10078       0.0441022
  8327.4       0.190693       0.0959052   0.0376905   0.186685       0.171022       0.129592       0.051221
  8327.8       0.233946       0.124022       0.0466653   0.238101       0.21591       0.164656       0.0604666
  8328.2       0.289364       0.153126       0.0565995   0.290272       0.269839       0.202279       0.0694881
  8328.6       0.345408       0.178531       0.0645671   0.332248       0.325099       0.234786       0.0746303
  8329       0.39756       0.198082       0.0694817   0.367129       0.368428       0.263571       0.0744834
  8329.4       0.435362       0.215659       0.0720935   0.402387       0.40792       0.287523       0.0714531
  8329.8       0.471916       0.228302       0.0746091   0.438022       0.442676       0.307495       0.0691699
  8330.2       0.50535       0.242671       0.0765488   0.459302       0.470542       0.320077       0.069473
  8330.6       0.530049       0.254079       0.0794478   0.47907       0.494651       0.334932       0.0724026
  8331       0.547261       0.261294       0.0836898   0.492416       0.515588       0.350922       0.0772278
  8331.4       0.558546       0.271714       0.0877877   0.505005       0.531358       0.361226       0.083812
  8331.8       0.565463       0.277446       0.0929408   0.524013       0.545249       0.368972       0.0921714
  8332.2       0.581113       0.286138       0.0991011   0.529423       0.557573       0.378422       0.102201
  8332.6       0.587717       0.293348       0.105597       0.54163       0.570053       0.390712       0.113589
  8333       0.596191       0.304504       0.11358       0.552701       0.577992       0.40016       0.127185
  8333.4       0.604041       0.317138       0.123385       0.569437       0.58507       0.407048       0.143657
  8333.8       0.616257       0.331497       0.135206       0.582394       0.595904       0.421608       0.164129
  8334.2       0.635958       0.347582       0.151823       0.596482       0.60932       0.43503       0.191388
  8334.6       0.650667       0.372051       0.174005       0.60868       0.623519       0.44902       0.229385
  8335       0.663192       0.397752       0.204869       0.622388       0.637717       0.46926       0.282652
  8335.4       0.6779       0.432823       0.24955       0.639493       0.653479       0.489784       0.355894
  8335.8       0.686681       0.474552       0.313083       0.652064       0.668067       0.515706       0.454043
  8336.2       0.696708       0.523679       0.399835       0.665389       0.679131       0.541343       0.575276
  8336.6       0.702368       0.573051       0.503233       0.680978       0.693326       0.567831       0.707496
  8337       0.710834       0.623162       0.610613       0.6943       0.70752       0.59517       0.830729
  8337.4       0.732088       0.665874       0.712139       0.711774       0.719757       0.619666       0.926822
  8337.8       0.745855       0.707351       0.793757       0.731513       0.732384       0.649276       0.980185
  8338.2       0.763365       0.746608       0.864725       0.745963       0.748924       0.674339       0.973791
  8338.6       0.783057       0.785863       0.932766       0.757389       0.762724       0.698263       0.982496
  8339       0.800253       0.827831        1.00345       0.771081       0.779654       0.72247       0.999314
  8339.4       0.819944       0.869797        1.07144       0.789302       0.795409       0.746959        1.00922
  8339.8       0.845248       0.90683        1.1318       0.799591       0.81586       0.77088        1.0152
  8340.2       0.857139       0.939177        1.17562       0.822342       0.833962       0.79622        1.0186
  8340.6       0.875891       0.969302        1.19722       0.841692       0.858717       0.82099        1.01944
  8341       0.896826       0.990795        1.19906       0.870482       0.879949       0.845191        1.01939
  8341.4       0.91776        1.01179        1.18315       0.895871       0.894135       0.86598        1.01838
  8341.8       0.930584        1.03402        1.16215       0.918238       0.911842       0.889895        1.01648
  8342.2       0.94559        1.05231        1.1495       0.942113       0.927592       0.909829        1.01515
  8342.6       0.958411        1.07528        1.15024       0.96221       0.944124       0.930046        1.01558
  8343       0.970609        1.09528        1.16906       0.967954       0.955568       0.943725        1.0169
  8343.4       0.982493        1.11258        1.19574       0.966142       0.963879       0.956266        1.01934
  8343.8       0.984707        1.12272        1.2301       0.960175       0.96945       0.959428        1.02122
  8344.2       0.988791        1.12595        1.2625       0.951561       0.977368       0.960031        1.02269
  8344.6       0.988196        1.11439        1.28022       0.949745       0.975892       0.955801        1.02353
  8345       0.997582        1.0974        1.275       0.946038       0.981069       0.953559        1.023
  8345.4       0.997609        1.07671        1.24887       0.944974       0.983506       0.944779        1.02223
  8345.8       0.994516        1.0538        1.20892       0.947307       0.979679       0.935998        1.02033
  8346.2       0.997973        1.03409        1.16403       0.955681       0.977418       0.9275        1.01555
  8346.6       0.996126        1.01833        1.12106       0.947058       0.975938       0.922127        1.01132
  8347       0.992095        1.00553        1.08154       0.942588       0.972892       0.913058        1.00613
  8347.4       0.995861       0.988287        1.04836       0.946803       0.972586       0.907967       0.999498
  8347.8       0.989333       0.979674        1.02112       0.941575       0.971495       0.903727       0.993506
  8348.2       0.989978       0.971308        1.00123       0.940499       0.972752       0.899202       0.987836
  8348.6       0.978457       0.962693       0.983775       0.9364       0.968138       0.89837       0.983049
  8349       0.987835       0.958764       0.972129       0.945518       0.969002       0.8964       0.979145
  8349.4       0.985671       0.958286       0.965424       0.947837       0.970649       0.896702       0.977491
  8349.8       0.991303       0.957314       0.959679       0.953175       0.973077       0.89473       0.97672
  8350.2       0.988202       0.959793       0.960121       0.950958       0.977462       0.897303       0.976914
  8350.6       0.985411       0.960052       0.961139       0.954782       0.978715       0.896181       0.978954
  8351       0.998839       0.963269       0.964891       0.953695       0.98388       0.898468       0.981557
  8351.4       0.99979       0.965992       0.968979       0.962049       0.990611       0.903595       0.982875
  8351.8        1.00729       0.968714       0.970332       0.967001       0.996167       0.901616       0.982988
  8352.2        1.00762       0.969955       0.973508       0.970063       0.996634       0.903899       0.983342
  8352.6        1.0095       0.970702       0.975725       0.977656       0.997883       0.907602       0.983616
  8353        1.01419       0.975641       0.977077       0.979205        1.00109       0.910451       0.985737
  8353.4        1.01389       0.973179       0.980109       0.983773       0.998031       0.911594       0.987778
  8353.8        1.01951       0.974417       0.985251       0.980786        1.00319       0.913304       0.989257
  8354.2        1.0164       0.975899       0.990153       0.975909        1.00052       0.912738       0.990494
  8354.6        1.02359       0.974668       0.991169       0.976318        1.0002       0.911888       0.99109
  8355        1.00862       0.977135       0.995591       0.968416       0.994794       0.913594       0.991846
  8355.4        1.01081       0.977628       0.998189       0.967689       0.997995       0.912457       0.992602
  8355.8        1.0077       0.975901        1.00016       0.971114       0.990236       0.91075       0.992956
  8356.2        1.00833       0.976885        1.00411       0.970384       0.989521       0.908474       0.993632
  8356.6        1.00553       0.979595        1.00752       0.962853       0.993111       0.909038       0.994067
  8357        1.00397       0.980824        1.00935       0.966274       0.988873       0.904485       0.994342
  8357.4        1.0021       0.978352        1.0107       0.961384       0.990504       0.906752       0.995419
  8357.8       0.999295       0.977852        1.00903       0.959891       0.986264       0.905039       0.995854
  8358.2       0.995553       0.974146        1.00894       0.95953       0.980066       0.904746       0.99653
  8358.6       0.997113       0.972904        1.00727       0.961434       0.979347       0.904168       0.996162
  8359       0.98214       0.968702        1.00406       0.955026       0.980584       0.901598       0.996035
  8359.4       0.989625       0.968445        1.00003       0.953905       0.975558       0.898744       0.994222
  8359.8       0.993366       0.966954       0.994812       0.94825       0.976794       0.899298       0.992649
  8360.2       0.98962       0.963242       0.99098       0.949769       0.979203       0.896441       0.991478
  8360.6       0.98525       0.957803       0.987819       0.942978       0.985525       0.892446       0.99103
  8361       0.984933       0.955816       0.983699       0.944116       0.993021       0.892996       0.990582
  8361.4       0.983992       0.957773       0.981161       0.942609       0.991122       0.89383       0.98917
  8361.8       0.982114       0.957263       0.980111       0.944877       0.991963       0.890684       0.987518
  8362.2       0.976805       0.953546       0.976614       0.939967       0.992803       0.889526       0.987471
  8362.6       0.981788       0.953281       0.973644       0.939588       0.983857       0.890071       0.988389
  8363.9       0.974973       0.952843       0.963343       0.933813       0.974837       0.891979       0.984062
  8365.6       0.976869       0.949902       0.954435       0.937827       0.967033       0.894126       0.980173
  8367.4       0.981008       0.951744       0.949361       0.95191       0.966861       0.900219       0.978923
  8369.3       0.984267       0.958118       0.93536       0.973033       0.978621       0.917361       0.974209
  8371.2       0.999048       0.965702       0.915454        1.00243       0.99467       0.923391       0.973593
  8373.1        1.01818       0.958958       0.896408        1.00497        1.00796       0.937635       0.979483
  8375.1        1.03112       0.992008       0.891652        1.05949        1.02223       0.982813       0.980223
  8377.2        1.0438       0.973351       0.900082        1.05759        1.02845       0.965704       0.977179
  8379.3        1.04461       0.959598       0.918438        1.01749        1.04053       0.952824       0.973332
  8381.5        1.02861       0.961954       0.948539        1.0033        1.09741       0.951826       0.978633
  8383.6        1.01908       0.977737       0.984921        1.00503        1.05465       0.963033       0.990532
  8385.9        1.00559       0.988273        1.01894        1.00271       0.985652       0.969896       0.99984
  8388.2       0.992081       0.995816        1.05497       0.985599       0.972599       0.96876        1.00642
  8390.5       0.985093        1.00135        1.07617       0.97788       0.968525       0.967299        1.00987
  8392.9       0.989993        1.00621        1.08009       0.979046       0.968926       0.96378        1.0109
  8395.4       0.978391        1.01015        1.07858       0.972849       0.971061       0.961889        1.01063
  8397.9       0.981417        1.00936        1.07126       0.97452       0.966121       0.957677        1.01013
  8400.4       0.983476        1.01173        1.06071       0.980659       0.964675       0.960522        1.00883
  8403       0.976513        1.01539        1.05414       0.991509       0.973567       0.959019        1.00735
  8405.6       0.983241        1.01605        1.04813       0.993604       0.9746       0.967126        1.00661
  8408.3       0.996849        1.01305        1.04057       0.990579       0.979312       0.962636        1.00497
  8411        1.00013        1.00878        1.02284        1.01165       0.986339       0.967183        1.00205
  8413.8        1.00872        1.00207       0.996166        1.00984       0.998997       0.968503       0.996465
  8416.7        1.01202       0.997623       0.962185        1.02291        1.00867       0.981651       0.986861
  8419.5        1.02646       0.993283       0.932086        1.02774        1.02204       0.985974       0.975342
  8422.5        1.03565       0.987573       0.913573        1.03028        1.02947       0.990701       0.969991
  8425.5        1.04198       0.98501       0.911936        1.03576        1.03373       0.999054       0.969703
  8428.5        1.03704       0.979678       0.924055        1.0385        1.02777       0.995968       0.974478
  8431.6        1.03272       0.981513       0.949443        1.02021        1.01646       0.995597       0.982941
  8434.7        1.01619       0.985999       0.978946        1.00749        1.0106       0.996288       0.992049
  8437.9       0.999954       0.984081        1.00416        1.00734       0.993506       0.994284       0.998421
  8441.1       0.989595       0.981851        1.02135       0.992363       0.986937       0.985664        1.00198
  8444.3       0.977625       0.97265        1.03152       0.975767       0.971709       0.973554        1.00435
  8447.7       0.960677       0.966223        1.03504       0.95757       0.95286       0.96236        1.00541
  8451       0.948631       0.96262        1.03725       0.938686       0.943182       0.956834        1.00616
  8454.5       0.938148       0.96745        1.03632       0.938576       0.938876       0.960734        1.00626
  8457.9       0.943483        1.02665        1.03159       0.945427       0.949213       0.965193        1.00565
  8461.4       0.956896       0.983232        1.02672       0.95248       0.959854       0.969784        1.00463
  8465       0.966527       0.993307        1.02171       0.959733       0.9708       0.974505        1.00352
  8468.6       0.972973       0.993927        1.01616       0.968415       0.976817       0.978144        1.00186
  8472.3       0.975008       0.995497        1.01162       0.971043       0.975672       0.981389        1.00092
  8476       0.978532       0.993034        1.00447       0.966357       0.980726       0.980833       0.999735
  8479.7       0.991969        1.00232       0.997548       0.984947        1.01233       0.991539       0.998881
  8483.6        1.01004        1.0042       0.992641       0.999941        1.01287       0.9937       0.998095
  8487.4        1.02273        1.00299       0.986963        1.00556        1.01905       0.998404       0.999732
  8491.3        1.0419        1.02243       0.992717        1.0346        1.03119        1.01767       0.998152
  8495.3        1.05351        1.01666       0.995509        1.0338        1.0348        1.01937       0.997856
  8499.3        1.04259        1.01028       0.994156        1.02528        1.02658        1.01271       0.99909
  8503.3        1.03159        1.00356       0.99168        1.01546        1.0136        1.00394       0.998081
  8507.4        1.01052       0.98838       0.987775       0.992403       0.988162       0.989525       0.997471
  8511.6       0.984068       0.974837       0.983591       0.965149       0.96435       0.975428       0.997663
  8515.8       0.953471       0.967099       0.985142       0.947912       0.95572       0.963754       0.997941
  8520       0.938069       0.970592       0.994298       0.94938       0.95014       0.965585       0.999589
  8524.3       0.947526       0.986564        1.00931       0.973448       0.961833       0.982211        1.0018
  8528.7       0.964678       0.991578        1.02093       0.975915       0.985706       0.986341        1.00377
  8533       0.98611        1.00632        1.02601        1.00262       0.995268        1.00012        1.00446
  8537.5       0.994634        1.00394        1.02753       0.998764       0.998347       0.999837        1.00475
  8542       0.996817        1.0182        1.0249        1.0302       0.995852        1.02327        1.00432
  8546.5       0.997337        1.00965        1.02613       0.999867        1.0007        1.0042        1.00414
  8551.1       0.993368        1.00342        1.0158        1.00568       0.99305        1.00273        1.00268
  8555.7       0.984613        1.00273        1.00745        1.00183       0.995087        1.00109        1.0017
  8560.4       0.991635        1.00757        1.00054        1.01598       0.998317        1.00624        1.0004
  8565.2        1.00164        1.01028       0.996365        1.02696        1.0133        1.00992       0.999351
  8569.9        1.01405        1.01261       0.992327        1.03952        1.01867        1.01785       0.998791
  8574.8        1.01256        1.00539       0.988545        1.02669        1.01359        1.01731        1.00016
  8579.7        1.01968        1.01109       0.991162        1.02758        1.02602        1.01602       0.998076
  8584.6        1.01327        1.00233       0.991782        1.01691        1.02111        1.00829       0.998493
  8589.6        1.00607       0.996103       0.990233        1.00151        1.00132       0.99991       0.998591
  8594.6       0.991259       0.990206       0.994362       0.992649       0.987281       0.992191       0.99926
  8599.7       0.980956       0.984114       0.997231       0.981691       0.985752       0.990911        1.00001
  8604.8       0.975825       0.987472        1.00151       0.978777       0.981754       0.99        1.00077
  8610       0.979246       0.988897        1.00423       0.977897       0.982427       0.992101        1.00106
  8615.2       0.987833       0.991134        1.00443       0.983162       0.986104       0.996268        1.00127
  8620.5       0.985622       0.98797        1.00168       0.97722       0.976438       0.997463        1.00108
  8625.8       0.999489       0.994737        1.00418       0.982701       0.989733        1.00384        1.00088
  8631.1        1.00105        1.01144        1.00227        1.00149        1.0029        1.01029        1.00069
  8636.6        1.00234        1.00367        1.00391        1.00188        1.00357        1.01239        1.00049
  8642        1.00916        1.01229        1.00588        1.02235        1.00089        1.02727        1.00029
  8647.5        1.00859        1.014        1.0049        1.00967        1.00403        1.01896        1.00012
  8653.1        1.01247        1.00929        1.00313        1.01101        1.01336        1.01786       0.999745
  8658.7        1.01681        1.01127       0.999732        1.006        1.02685        1.0151       0.999537
  8664.4        1.02373        1.00558       0.998371        1.00442        1.02069        1.00873       0.999658
  8670.1        1.02113        1.00782       0.997688        1.00552        1.00969        1.01519       0.999468
  8675.8        1.01742        1.0027       0.997397        1.00215        1.00558        1.0086       0.99945
  8681.6        1.00848        1.00049       0.995059       0.996135       0.999028        1.00493       0.999359
  8687.5        1.00021        1.00389       0.99355        1.00786        1.0006        1.0104       0.999439
  8693.4        1.00361       0.999674       0.992045        1.00375        1.01179        1.00139       0.99961
  8699.4       0.996767       0.997103       0.990551        1.00451       0.99744       0.999237        1.00059
  8705.4       0.994729       0.990109       0.991651       0.988665        1.01345       0.989418        1.00047
  8711.4       0.988765       0.992007       0.994144       0.983029       0.988971       0.9887        1.00107
  8717.5       0.985323       0.995538       0.99415       0.98337       0.992945       0.988845        1.00071
  8736.1       0.995357       0.995777        1.0068        1.04604        1.00002        1.02647       0.997745
  8742.4       0.999651       0.995858        1.00873        1.00008       0.999055       0.98478       0.998008
  8748.7       0.999689       0.99594        1.00423       0.996765        1.00456       0.985703       0.998204
  8755.1        1.01063       0.996022        1.00279       0.995578       0.999334       0.988284       0.998573
  8761.6        1.0072       0.996106        1.00495        1.01802        1.00529        1.0124       0.998716
  8768.1       0.998571       0.99619       0.998715       0.978856       0.990314       0.974525        1.00393
  8774.6        1.00719       0.996273       0.99909       0.997799       0.999013       0.986341       0.998881
  8781.2       0.999866       0.996358       0.995523       0.990109       0.995788       0.981302        1.00469
  8787.8        1.00604        1.00476       0.996747        1.00351       0.999796       0.98957       0.998621
  8794.5        1.00125       0.996444       0.996279       0.992886       0.993826       0.984941       0.999397
  8801.2       0.98937       0.98562       0.993116       0.979544        1.01465       0.977978        1.00846
  8808        1.00362        1.00541       0.99886        1.00259        1.00122       0.999875       0.998826
  8814.9        1.00252       0.997114       0.999646       0.996661        1.00793       0.990652        1.00005
  8821.7       0.993843        1.0025       0.998557       0.999875        1.00815       0.991653        1.00233
  8828.7       0.990226       0.99045       0.997967       0.990906       0.981142       0.985031        1.00058
  8835.6       0.999626        1.00811        1.00092        1.00656       0.987574       0.998011       0.998842
  8842.7       0.997844        1.00043        1.00005       0.992626       0.986321       0.991967       0.998047
  8849.8       0.997989        1.00771        1.00018        1.00461       0.983267        1.00315       0.998875
  8856.9       0.994448       0.995431        1.00024       0.99078       0.982327       0.993491       0.998594
  8864       0.993147       0.998364        1.00259       0.996076       0.990937       0.997933       0.999533
  8871.3       0.99996       0.998582        1.00009        1.0053       0.991039        1.00204        1.00002
  8878.5        1.00669        1.0041        1.00196        1.01989       0.988967        1.01211        1.00035
  8885.9        1.00716        1.00292        1.00191        1.00777        1.00302        1.00846       0.999346
  8893.2        1.00661       0.999153        1.00151        1.01009       0.989075        1.01134        1.00076
  8900.6        1.00497        1.01035        1.00506        1.02443        1.09421        1.02049        1.00517
  8908.1       0.997867       0.998273        1.00152       0.998297        1.01157        1.00946        1.01274
  8915.6       0.990474       0.996931        1.00247       0.981786       0.998339        1.00682        1.02031
  8923.2       0.98789       0.996466        1.00092       0.988587       0.999274        1.0087        1.02798
  8930.8       0.984701       0.995135       0.99983       0.981961       0.980762        1.00644        1.03565
  8938.5       0.986306        1.00206       0.999747       0.998993        1.01006        1.0101        1.04342
  8946.2       0.995721       0.99849        1.00204       0.998428       0.987035        1.00905        1.05119
  8953.9       0.995789        1.00046        1.00003        1.00104       0.988388        1.00611        1.05896
  8961.7       0.994393        1.01855        1.0043        1.03671       0.985091        1.0267        1.06683
  8969.6       0.993081        1.02833        1.00544        1.04083       0.999832        1.02843        1.0748
  8977.5       0.988957        1.00984        1.00565        1.03149        1.02172        1.0132        1.08278
  8985.4       0.984828        1.00723        1.00808        1.02679        1.04371        1.00431        1.09075
  8993.4       0.974212        1.00491        1.00905        1.02261       0.98587        1.00042        1.09882
  9001.5       0.976437        1.00042        1.00785        1.01893       0.998488       0.991552        1.10699
  9009.6       0.963981        1.00413        1.00988        1.0142        1.01041       0.987011        1.11517
  9017.7       0.971154        1.01185        1.01149        1.02542        1.03925       0.992195        1.12334
  9021.8       0.973084        1.00998        1.01103        1.02813        1.01456       0.988514        1.12748