File: _archive/xrd_analysis/notebooks/mask-and-integrate/reza-Dec2018/LaB6/LaB6_SPIN_20181005-035312_dx_47.000mm_63650b_0001.xy
# 2Theta    Intensity
4.3096e-03  6.2467e+00
1.8127e-02  4.6840e+00
3.3666e-02  4.7389e+00
4.9205e-02  5.6941e+00
6.4744e-02  5.6787e+00
8.0283e-02  5.7327e+00
9.5822e-02  5.6628e+00
1.1136e-01  6.7187e+00
1.2690e-01  6.0968e+00
1.4244e-01  7.1629e+00
1.5798e-01  8.3189e+00
1.7352e-01  9.9720e+00
1.8906e-01  1.1637e+01
2.0460e-01  1.2139e+01
2.2013e-01  1.3745e+01
2.3567e-01  1.5533e+01
2.5121e-01  1.6298e+01
2.6675e-01  1.6987e+01
2.8229e-01  1.8678e+01
2.9783e-01  1.9513e+01
3.1337e-01  2.0661e+01
3.2891e-01  2.2403e+01
3.4445e-01  2.2395e+01
3.5998e-01  2.3784e+01
3.7552e-01  2.4475e+01
3.9106e-01  2.5069e+01
4.0660e-01  2.5513e+01
4.2214e-01  2.6334e+01
4.3768e-01  2.6200e+01
4.5322e-01  2.7947e+01
4.6876e-01  2.8296e+01
4.8430e-01  2.8490e+01
4.9983e-01  2.9338e+01
5.1537e-01  2.9616e+01
5.3091e-01  2.9524e+01
5.4645e-01  2.9801e+01
5.6199e-01  3.0018e+01
5.7753e-01  3.0354e+01
5.9307e-01  3.1308e+01
6.0861e-01  3.2266e+01
6.2415e-01  3.2853e+01
6.3968e-01  3.4541e+01
6.5522e-01  3.6044e+01
6.7076e-01  3.8400e+01
6.8630e-01  4.2057e+01
7.0184e-01  4.4131e+01
7.1738e-01  4.5515e+01
7.3292e-01  4.6467e+01
7.4845e-01  4.5912e+01
7.6399e-01  4.7064e+01
7.7953e-01  4.7983e+01
7.9507e-01  4.8626e+01
8.1061e-01  5.0174e+01
8.2615e-01  5.2200e+01
8.4168e-01  5.5651e+01
8.5722e-01  5.5815e+01
8.7276e-01  5.6967e+01
8.8830e-01  5.7674e+01
9.0384e-01  5.8644e+01
9.1937e-01  6.1304e+01
9.3491e-01  6.2375e+01
9.5045e-01  6.3273e+01
9.6599e-01  6.3594e+01
9.8152e-01  6.4344e+01
9.9706e-01  6.4169e+01
1.0126e+00  6.4075e+01
1.0281e+00  6.3838e+01
1.0437e+00  6.3799e+01
1.0592e+00  6.3522e+01
1.0747e+00  6.3274e+01
1.0903e+00  6.2721e+01
1.1058e+00  6.2499e+01
1.1214e+00  6.2127e+01
1.1369e+00  6.1890e+01
1.1524e+00  6.1841e+01
1.1680e+00  6.1316e+01
1.1835e+00  6.1465e+01
1.1990e+00  6.1265e+01
1.2146e+00  6.1160e+01
1.2301e+00  6.1090e+01
1.2456e+00  6.1300e+01
1.2612e+00  6.1432e+01
1.2767e+00  6.1915e+01
1.2922e+00  6.2321e+01
1.3078e+00  6.2853e+01
1.3233e+00  6.3241e+01
1.3389e+00  6.4163e+01
1.3544e+00  6.3910e+01
1.3699e+00  6.3542e+01
1.3855e+00  6.3030e+01
1.4010e+00  6.2918e+01
1.4165e+00  6.2305e+01
1.4321e+00  6.2070e+01
1.4476e+00  6.1695e+01
1.4631e+00  6.1462e+01
1.4787e+00  6.1397e+01
1.4942e+00  6.0941e+01
1.5097e+00  6.0745e+01
1.5253e+00  6.0260e+01
1.5408e+00  6.0231e+01
1.5563e+00  6.0035e+01
1.5719e+00  5.9849e+01
1.5874e+00  5.9705e+01
1.6029e+00  5.9894e+01
1.6184e+00  5.9813e+01
1.6340e+00  5.9853e+01
1.6495e+00  5.9744e+01
1.6650e+00  6.0211e+01
1.6806e+00  6.0264e+01
1.6961e+00  6.0706e+01
1.7116e+00  6.0639e+01
1.7272e+00  6.0999e+01
1.7427e+00  6.0993e+01
1.7582e+00  6.1042e+01
1.7738e+00  6.1011e+01
1.7893e+00  6.1059e+01
1.8048e+00  6.0952e+01
1.8203e+00  6.0727e+01
1.8359e+00  6.0547e+01
1.8514e+00  6.0021e+01
1.8669e+00  5.9696e+01
1.8825e+00  5.9729e+01
1.8980e+00  5.9592e+01
1.9135e+00  5.9678e+01
1.9290e+00  5.9702e+01
1.9446e+00  5.9796e+01
1.9601e+00  5.9893e+01
1.9756e+00  5.9937e+01
1.9911e+00  5.9878e+01
2.0067e+00  5.9496e+01
2.0222e+00  5.9575e+01
2.0377e+00  5.8978e+01
2.0532e+00  5.8830e+01
2.0688e+00  5.8626e+01
2.0843e+00  5.8477e+01
2.0998e+00  5.8625e+01
2.1153e+00  5.8469e+01
2.1309e+00  5.8110e+01
2.1464e+00  5.7982e+01
2.1619e+00  5.7862e+01
2.1774e+00  5.7453e+01
2.1930e+00  5.7459e+01
2.2085e+00  5.7380e+01
2.2240e+00  5.7198e+01
2.2395e+00  5.7045e+01
2.2551e+00  5.7180e+01
2.2706e+00  5.7409e+01
2.2861e+00  5.8138e+01
2.3016e+00  5.6550e+01
2.3171e+00  5.6341e+01
2.3327e+00  5.6218e+01
2.3482e+00  5.5826e+01
2.3637e+00  5.5790e+01
2.3792e+00  5.5639e+01
2.3947e+00  5.5333e+01
2.4103e+00  5.5306e+01
2.4258e+00  5.5880e+01
2.4413e+00  5.5874e+01
2.4568e+00  5.4913e+01
2.4723e+00  5.4994e+01
2.4879e+00  5.4907e+01
2.5034e+00  5.4753e+01
2.5189e+00  5.5308e+01
2.5344e+00  5.6205e+01
2.5499e+00  5.7936e+01
2.5654e+00  8.3790e+01
2.5810e+00  7.3763e+02
2.5965e+00  4.9488e+02
2.6120e+00  6.7162e+01
2.6275e+00  5.7210e+01
2.6430e+00  5.5195e+01
2.6585e+00  5.4345e+01
2.6740e+00  5.3668e+01
2.6896e+00  5.3102e+01
2.7051e+00  5.3102e+01
2.7206e+00  5.2654e+01
2.7361e+00  5.3228e+01
2.7516e+00  5.3580e+01
2.7671e+00  5.2233e+01
2.7826e+00  5.0979e+01
2.7981e+00  5.0635e+01
2.8137e+00  5.0862e+01
2.8292e+00  5.5128e+01
2.8447e+00  5.3680e+01
2.8602e+00  4.9232e+01
2.8757e+00  4.8470e+01
2.8912e+00  4.8200e+01
2.9067e+00  4.7890e+01
2.9222e+00  4.8086e+01
2.9377e+00  4.7707e+01
2.9532e+00  4.7599e+01
2.9687e+00  4.7620e+01
2.9842e+00  4.6992e+01
2.9998e+00  4.7108e+01
3.0153e+00  4.6661e+01
3.0308e+00  4.6783e+01
3.0463e+00  4.6738e+01
3.0618e+00  4.7231e+01
3.0773e+00  4.8052e+01
3.0928e+00  4.8167e+01
3.1083e+00  4.6898e+01
3.1238e+00  4.6758e+01
3.1393e+00  4.6848e+01
3.1548e+00  4.6993e+01
3.1703e+00  4.7293e+01
3.1858e+00  4.7731e+01
3.2013e+00  4.7739e+01
3.2168e+00  4.7873e+01
3.2323e+00  4.6774e+01
3.2478e+00  4.5846e+01
3.2633e+00  4.5053e+01
3.2788e+00  4.4651e+01
3.2943e+00  4.4217e+01
3.3098e+00  4.3848e+01
3.3253e+00  4.3829e+01
3.3408e+00  4.3354e+01
3.3563e+00  4.2852e+01
3.3718e+00  4.2563e+01
3.3873e+00  4.2559e+01
3.4028e+00  4.2046e+01
3.4183e+00  4.2408e+01
3.4338e+00  4.2942e+01
3.4493e+00  4.3652e+01
3.4647e+00  4.3397e+01
3.4802e+00  4.1631e+01
3.4957e+00  4.1095e+01
3.5112e+00  4.1172e+01
3.5267e+00  4.1485e+01
3.5422e+00  4.1337e+01
3.5577e+00  4.1011e+01
3.5732e+00  4.0986e+01
3.5887e+00  4.1453e+01
3.6042e+00  4.3098e+01
3.6197e+00  4.6715e+01
3.6351e+00  7.8222e+01
3.6506e+00  8.9246e+02
3.6661e+00  1.0602e+03
3.6816e+00  7.7623e+01
3.6971e+00  4.6850e+01
3.7126e+00  4.2557e+01
3.7281e+00  4.0679e+01
3.7436e+00  3.9267e+01
3.7590e+00  3.8279e+01
3.7745e+00  3.7757e+01
3.7900e+00  3.7180e+01
3.8055e+00  3.6978e+01
3.8210e+00  3.6656e+01
3.8365e+00  3.6504e+01
3.8519e+00  3.7461e+01
3.8674e+00  3.8055e+01
3.8829e+00  3.6334e+01
3.8984e+00  3.5790e+01
3.9139e+00  3.5919e+01
3.9293e+00  3.5630e+01
3.9448e+00  3.5841e+01
3.9603e+00  3.6206e+01
3.9758e+00  3.7006e+01
3.9912e+00  3.9671e+01
4.0067e+00  4.8908e+01
4.0222e+00  4.3822e+01
4.0377e+00  3.7462e+01
4.0531e+00  3.7726e+01
4.0686e+00  3.8867e+01
4.0841e+00  3.8891e+01
4.0996e+00  3.5997e+01
4.1150e+00  3.4691e+01
4.1305e+00  3.4127e+01
4.1460e+00  3.3674e+01
4.1615e+00  3.3460e+01
4.1769e+00  3.3515e+01
4.1924e+00  3.3700e+01
4.2079e+00  3.4384e+01
4.2233e+00  3.5225e+01
4.2388e+00  3.3832e+01
4.2543e+00  3.3101e+01
4.2697e+00  3.3025e+01
4.2852e+00  3.3096e+01
4.3007e+00  3.3185e+01
4.3161e+00  3.4721e+01
4.3316e+00  3.6051e+01
4.3471e+00  3.3769e+01
4.3625e+00  3.3285e+01
4.3780e+00  3.2979e+01
4.3934e+00  3.2846e+01
4.4089e+00  3.3513e+01
4.4244e+00  3.4199e+01
4.4398e+00  3.6055e+01
4.4553e+00  4.6284e+01
4.4707e+00  3.0729e+02
4.4862e+00  5.8904e+02
4.5017e+00  6.8418e+01
4.5171e+00  3.7990e+01
4.5326e+00  3.4775e+01
4.5480e+00  3.3528e+01
4.5635e+00  3.2937e+01
4.5789e+00  3.2415e+01
4.5944e+00  3.2093e+01
4.6099e+00  3.2054e+01
4.6253e+00  3.1737e+01
4.6408e+00  3.1463e+01
4.6562e+00  3.1415e+01
4.6717e+00  3.1470e+01
4.6871e+00  3.2405e+01
4.7026e+00  3.2337e+01
4.7180e+00  3.1244e+01
4.7335e+00  3.0999e+01
4.7489e+00  3.0926e+01
4.7644e+00  3.1014e+01
4.7798e+00  3.0717e+01
4.7952e+00  3.0836e+01
4.8107e+00  3.0902e+01
4.8261e+00  3.1183e+01
4.8416e+00  3.1310e+01
4.8570e+00  3.1453e+01
4.8725e+00  3.1965e+01
4.8879e+00  3.2087e+01
4.9034e+00  3.5391e+01
4.9188e+00  3.5870e+01
4.9342e+00  3.2100e+01
4.9497e+00  3.1184e+01
4.9651e+00  3.0974e+01
4.9805e+00  3.0799e+01
4.9960e+00  3.0619e+01
5.0114e+00  3.0826e+01
5.0269e+00  3.1385e+01
5.0423e+00  3.0943e+01
5.0577e+00  3.0841e+01
5.0732e+00  3.2294e+01
5.0886e+00  3.3325e+01
5.1040e+00  3.1496e+01
5.1195e+00  3.1303e+01
5.1349e+00  3.2281e+01
5.1503e+00  4.1384e+01
5.1658e+00  2.1553e+02
5.1812e+00  2.9542e+02
5.1966e+00  4.5453e+01
5.2120e+00  3.2400e+01
5.2275e+00  3.1442e+01
5.2429e+00  3.0808e+01
5.2583e+00  3.0681e+01
5.2737e+00  3.0866e+01
5.2892e+00  3.0718e+01
5.3046e+00  3.0557e+01
5.3200e+00  3.0910e+01
5.3354e+00  3.2060e+01
5.3509e+00  3.1214e+01
5.3663e+00  3.0399e+01
5.3817e+00  3.0186e+01
5.3971e+00  3.0085e+01
5.4125e+00  2.9989e+01
5.4280e+00  2.9981e+01
5.4434e+00  3.0169e+01
5.4588e+00  3.0199e+01
5.4742e+00  3.0456e+01
5.4896e+00  3.0875e+01
5.5050e+00  3.1179e+01
5.5204e+00  3.0843e+01
5.5359e+00  3.0685e+01
5.5513e+00  3.0642e+01
5.5667e+00  3.0778e+01
5.5821e+00  3.1169e+01
5.5975e+00  3.1205e+01
5.6129e+00  3.0906e+01
5.6283e+00  3.0848e+01
5.6437e+00  3.1090e+01
5.6591e+00  3.3063e+01
5.6745e+00  3.5018e+01
5.6899e+00  3.2556e+01
5.7053e+00  3.1267e+01
5.7207e+00  3.1577e+01
5.7361e+00  3.2561e+01
5.7515e+00  3.6174e+01
5.7670e+00  1.0895e+02
5.7824e+00  6.7565e+02
5.7978e+00  3.7442e+02
5.8131e+00  4.4498e+01
5.8285e+00  3.4155e+01
5.8439e+00  3.1787e+01
5.8593e+00  3.0668e+01
5.8747e+00  3.0280e+01
5.8901e+00  2.9787e+01
5.9055e+00  2.9559e+01
5.9209e+00  2.9258e+01
5.9363e+00  2.9195e+01
5.9517e+00  2.9108e+01
5.9671e+00  2.9022e+01
5.9825e+00  2.8915e+01
5.9979e+00  2.8881e+01
6.0133e+00  2.9014e+01
6.0286e+00  2.8974e+01
6.0440e+00  2.9164e+01
6.0594e+00  2.9445e+01
6.0748e+00  2.9933e+01
6.0902e+00  3.0243e+01
6.1056e+00  2.9971e+01
6.1210e+00  2.9536e+01
6.1363e+00  2.9269e+01
6.1517e+00  2.8922e+01
6.1671e+00  2.8854e+01
6.1825e+00  2.9582e+01
6.1979e+00  2.9187e+01
6.2132e+00  2.8881e+01
6.2286e+00  2.9033e+01
6.2440e+00  2.8935e+01
6.2594e+00  2.9338e+01
6.2747e+00  2.9688e+01
6.2901e+00  3.0163e+01
6.3055e+00  3.3020e+01
6.3208e+00  8.7536e+01
6.3362e+00  3.7449e+02
6.3516e+00  1.9506e+02
6.3670e+00  3.6862e+01
6.3823e+00  3.1051e+01
6.3977e+00  2.9712e+01
6.4131e+00  2.9120e+01
6.4284e+00  2.8746e+01
6.4438e+00  2.8443e+01
6.4591e+00  2.8479e+01
6.4745e+00  2.8134e+01
6.4899e+00  2.7872e+01
6.5052e+00  2.7889e+01
6.5206e+00  2.7840e+01
6.5360e+00  2.7801e+01
6.5513e+00  2.7876e+01
6.5667e+00  2.7754e+01
6.5820e+00  2.7930e+01
6.5974e+00  2.7662e+01
6.6127e+00  2.7644e+01
6.6281e+00  2.7651e+01
6.6434e+00  2.7792e+01
6.6588e+00  2.7908e+01
6.6741e+00  2.7766e+01
6.6895e+00  2.8198e+01
6.7048e+00  2.8857e+01
6.7202e+00  2.9570e+01
6.7355e+00  2.8431e+01
6.7509e+00  2.8531e+01
6.7662e+00  2.8055e+01
6.7816e+00  2.7628e+01
6.7969e+00  2.7782e+01
6.8123e+00  2.8451e+01
6.8276e+00  2.8821e+01
6.8429e+00  2.8163e+01
6.8583e+00  2.7718e+01
6.8736e+00  2.7521e+01
6.8890e+00  2.7780e+01
6.9043e+00  2.8014e+01
6.9196e+00  2.8581e+01
6.9350e+00  3.0850e+01
6.9503e+00  3.2867e+01
6.9656e+00  3.1304e+01
6.9810e+00  3.0057e+01
6.9963e+00  2.8755e+01
7.0116e+00  2.8130e+01
7.0270e+00  2.7722e+01
7.0423e+00  2.7372e+01
7.0576e+00  2.7416e+01
7.0729e+00  2.7458e+01
7.0883e+00  2.7533e+01
7.1036e+00  2.7532e+01
7.1189e+00  2.7645e+01
7.1342e+00  2.7440e+01
7.1496e+00  2.7416e+01
7.1649e+00  2.7564e+01
7.1802e+00  2.7487e+01
7.1955e+00  2.7439e+01
7.2108e+00  2.7270e+01
7.2261e+00  2.7152e+01
7.2415e+00  2.7230e+01
7.2568e+00  2.7395e+01
7.2721e+00  2.7651e+01
7.2874e+00  2.8766e+01
7.3027e+00  5.1670e+01
7.3180e+00  1.5008e+02
7.3333e+00  9.7375e+01
7.3486e+00  3.0884e+01
7.3640e+00  2.8003e+01
7.3793e+00  2.7489e+01
7.3946e+00  2.7383e+01
7.4099e+00  2.7143e+01
7.4252e+00  2.7327e+01
7.4405e+00  2.7276e+01
7.4558e+00  2.7624e+01
7.4711e+00  2.7670e+01
7.4864e+00  2.7608e+01
7.5017e+00  2.7282e+01
7.5170e+00  2.6975e+01
7.5323e+00  2.6787e+01
7.5476e+00  2.6678e+01
7.5629e+00  2.6860e+01
7.5781e+00  2.6963e+01
7.5934e+00  2.7070e+01
7.6087e+00  2.6998e+01
7.6240e+00  2.7226e+01
7.6393e+00  2.7431e+01
7.6546e+00  2.8041e+01
7.6699e+00  2.7908e+01
7.6852e+00  2.7581e+01
7.7005e+00  2.8303e+01
7.7157e+00  2.9918e+01
7.7310e+00  3.3598e+01
7.7463e+00  8.8363e+01
7.7616e+00  3.5819e+02
7.7769e+00  2.6033e+02
7.7921e+00  3.9797e+01
7.8074e+00  2.9815e+01
7.8227e+00  2.9064e+01
7.8380e+00  2.8411e+01
7.8532e+00  2.7381e+01
7.8685e+00  2.6997e+01
7.8838e+00  2.6665e+01
7.8991e+00  2.6644e+01
7.9143e+00  2.6527e+01
7.9296e+00  2.6488e+01
7.9449e+00  2.6596e+01
7.9601e+00  2.6517e+01
7.9754e+00  2.6589e+01
7.9907e+00  2.6863e+01
8.0059e+00  2.7416e+01
8.0212e+00  2.8403e+01
8.0364e+00  2.8221e+01
8.0517e+00  2.7085e+01
8.0670e+00  2.6711e+01
8.0822e+00  2.6662e+01
8.0975e+00  2.6766e+01
8.1127e+00  2.7040e+01
8.1280e+00  2.7548e+01
8.1432e+00  2.8385e+01
8.1585e+00  3.4978e+01
8.1737e+00  1.5547e+02
8.1890e+00  2.6675e+02
8.2042e+00  9.3106e+01
8.2195e+00  3.0032e+01
8.2347e+00  2.7689e+01
8.2500e+00  2.7014e+01
8.2652e+00  2.6681e+01
8.2805e+00  2.6442e+01
8.2957e+00  2.6161e+01
8.3110e+00  2.5956e+01
8.3262e+00  2.5870e+01
8.3414e+00  2.5911e+01
8.3567e+00  2.5954e+01
8.3719e+00  2.6188e+01
8.3871e+00  2.6191e+01
8.4024e+00  2.6036e+01
8.4176e+00  2.5902e+01
8.4328e+00  2.5977e+01
8.4481e+00  2.5920e+01
8.4633e+00  2.5989e+01
8.4785e+00  2.6039e+01
8.4938e+00  2.6466e+01
8.5090e+00  2.7066e+01
8.5242e+00  2.7107e+01
8.5394e+00  2.6926e+01
8.5547e+00  2.8706e+01
8.5699e+00  7.1861e+01
8.5851e+00  1.7435e+02
8.6003e+00  1.1384e+02
8.6155e+00  3.0435e+01
8.6308e+00  2.7097e+01
8.6460e+00  2.6434e+01
8.6612e+00  2.6212e+01
8.6764e+00  2.6273e+01
8.6916e+00  2.6052e+01
8.7068e+00  2.5866e+01
8.7220e+00  2.5903e+01
8.7372e+00  2.5912e+01
8.7524e+00  2.5672e+01
8.7676e+00  2.5490e+01
8.7829e+00  2.5390e+01
8.7981e+00  2.5362e+01
8.8133e+00  2.5309e+01
8.8285e+00  2.5463e+01
8.8437e+00  2.5573e+01
8.8589e+00  2.5869e+01
8.8741e+00  2.5619e+01
8.8893e+00  2.5698e+01
8.9045e+00  2.5689e+01
8.9196e+00  2.5569e+01
8.9348e+00  2.5943e+01
8.9500e+00  3.1230e+01
8.9652e+00  4.9451e+01
8.9804e+00  4.5248e+01
8.9956e+00  2.7375e+01
9.0108e+00  2.5584e+01
9.0260e+00  2.5395e+01
9.0412e+00  2.5222e+01
9.0563e+00  2.5301e+01
9.0715e+00  2.5155e+01
9.0867e+00  2.5065e+01
9.1019e+00  2.4823e+01
9.1171e+00  2.4859e+01
9.1322e+00  2.4943e+01
9.1474e+00  2.4884e+01
9.1626e+00  2.4888e+01
9.1778e+00  2.4908e+01
9.1929e+00  2.4792e+01
9.2081e+00  2.4858e+01
9.2233e+00  2.4889e+01
9.2384e+00  2.4992e+01
9.2536e+00  2.5056e+01
9.2688e+00  2.4987e+01
9.2839e+00  2.5269e+01
9.2991e+00  2.6007e+01
9.3143e+00  3.6393e+01
9.3294e+00  1.0033e+02
9.3446e+00  1.0330e+02
9.3597e+00  3.5911e+01
9.3749e+00  2.6106e+01
9.3900e+00  2.5881e+01
9.4052e+00  2.6023e+01
9.4204e+00  2.5778e+01
9.4355e+00  2.5241e+01
9.4507e+00  2.4752e+01
9.4658e+00  2.4517e+01
9.4809e+00  2.4349e+01
9.4961e+00  2.4360e+01
9.5112e+00  2.4304e+01
9.5264e+00  2.4306e+01
9.5415e+00  2.4374e+01
9.5567e+00  2.4381e+01
9.5718e+00  2.4606e+01
9.5869e+00  2.4503e+01
9.6021e+00  2.4737e+01
9.6172e+00  2.5005e+01
9.6324e+00  2.5435e+01
9.6475e+00  2.6281e+01
9.6626e+00  3.3859e+01
9.6777e+00  1.3848e+02
9.6929e+00  1.9509e+02
9.7080e+00  9.3379e+01
9.7231e+00  2.8500e+01
9.7383e+00  2.5679e+01
9.7534e+00  2.5125e+01
9.7685e+00  2.4779e+01
9.7836e+00  2.4794e+01
9.7987e+00  2.4732e+01
9.8139e+00  2.4808e+01
9.8290e+00  2.4957e+01
9.8441e+00  2.4956e+01
9.8592e+00  2.4737e+01
9.8743e+00  2.4533e+01
9.8894e+00  2.4326e+01
9.9045e+00  2.4356e+01
9.9197e+00  2.4212e+01
9.9348e+00  2.4340e+01
9.9499e+00  2.4325e+01
9.9650e+00  2.4297e+01
9.9801e+00  2.4222e+01
9.9952e+00  2.4175e+01
1.0010e+01  2.3943e+01
1.0025e+01  2.3981e+01
1.0040e+01  2.3717e+01
1.0056e+01  2.3886e+01
1.0071e+01  2.3796e+01
1.0086e+01  2.3774e+01
1.0101e+01  2.3827e+01
1.0116e+01  2.3793e+01
1.0131e+01  2.3850e+01
1.0146e+01  2.3840e+01
1.0161e+01  2.3932e+01
1.0176e+01  2.3953e+01
1.0191e+01  2.4032e+01
1.0206e+01  2.3972e+01
1.0222e+01  2.4123e+01
1.0237e+01  2.4322e+01
1.0252e+01  2.4325e+01
1.0267e+01  2.4116e+01
1.0282e+01  2.4170e+01
1.0297e+01  2.4244e+01
1.0312e+01  2.4535e+01
1.0327e+01  2.5231e+01
1.0342e+01  3.3148e+01
1.0357e+01  5.1416e+01
1.0372e+01  4.8205e+01
1.0387e+01  2.6858e+01
1.0402e+01  2.5052e+01
1.0418e+01  2.4706e+01
1.0433e+01  2.4547e+01
1.0448e+01  2.4396e+01
1.0463e+01  2.4311e+01
1.0478e+01  2.4201e+01
1.0493e+01  2.4176e+01
1.0508e+01  2.4254e+01
1.0523e+01  2.4115e+01
1.0538e+01  2.4208e+01
1.0553e+01  2.4547e+01
1.0568e+01  2.4543e+01
1.0583e+01  2.4822e+01
1.0598e+01  2.5362e+01
1.0613e+01  2.6273e+01
1.0628e+01  2.6999e+01
1.0643e+01  2.7664e+01
1.0658e+01  4.6087e+01
1.0673e+01  1.3425e+02
1.0688e+01  1.4287e+02
1.0703e+01  5.4477e+01
1.0718e+01  2.6703e+01
1.0734e+01  2.5250e+01
1.0749e+01  2.4915e+01
1.0764e+01  2.4551e+01
1.0779e+01  2.4653e+01
1.0794e+01  2.4518e+01
1.0809e+01  2.4360e+01
1.0824e+01  2.4389e+01
1.0839e+01  2.4411e+01
1.0854e+01  2.4355e+01
1.0869e+01  2.4441e+01
1.0884e+01  2.4473e+01
1.0899e+01  2.4525e+01
1.0914e+01  2.4720e+01
1.0929e+01  2.4727e+01
1.0944e+01  2.5146e+01
1.0959e+01  2.7235e+01
1.0974e+01  6.3542e+01
1.0989e+01  1.1851e+02
1.1004e+01  1.0705e+02
1.1019e+01  3.4395e+01
1.1034e+01  2.5709e+01
1.1049e+01  2.4872e+01
1.1064e+01  2.4803e+01
1.1079e+01  2.4515e+01
1.1094e+01  2.4322e+01
1.1109e+01  2.4352e+01
1.1124e+01  2.4308e+01
1.1139e+01  2.4280e+01
1.1154e+01  2.4136e+01
1.1169e+01  2.4165e+01
1.1184e+01  2.4369e+01
1.1199e+01  2.4199e+01
1.1214e+01  2.4274e+01
1.1229e+01  2.4228e+01
1.1244e+01  2.4594e+01
1.1258e+01  2.5139e+01
1.1273e+01  3.4965e+01
1.1288e+01  5.9423e+01
1.1303e+01  5.9541e+01
1.1318e+01  3.2719e+01
1.1333e+01  2.5441e+01
1.1348e+01  2.5128e+01
1.1363e+01  2.5114e+01
1.1378e+01  2.4710e+01
1.1393e+01  2.4519e+01
1.1408e+01  2.4495e+01
1.1423e+01  2.4356e+01
1.1438e+01  2.4308e+01
1.1453e+01  2.4479e+01
1.1468e+01  2.4160e+01
1.1483e+01  2.4389e+01
1.1498e+01  2.4364e+01
1.1512e+01  2.4580e+01
1.1527e+01  2.4516e+01
1.1542e+01  2.4794e+01
1.1557e+01  2.6524e+01
1.1572e+01  5.0418e+01
1.1587e+01  7.4929e+01
1.1602e+01  6.7776e+01
1.1617e+01  2.9870e+01
1.1632e+01  2.5191e+01
1.1647e+01  2.4820e+01
1.1661e+01  2.4735e+01
1.1676e+01  2.4866e+01
1.1691e+01  2.5003e+01
1.1706e+01  2.5062e+01
1.1721e+01  2.5090e+01
1.1736e+01  2.4956e+01
1.1751e+01  2.4833e+01
1.1766e+01  2.4786e+01
1.1780e+01  2.4883e+01
1.1795e+01  2.5162e+01
1.1810e+01  2.5323e+01
1.1825e+01  2.5615e+01
1.1840e+01  2.7313e+01
1.1855e+01  5.2033e+01
1.1870e+01  1.1380e+02
1.1884e+01  1.1771e+02
1.1899e+01  5.5802e+01
1.1914e+01  2.7453e+01
1.1929e+01  2.5786e+01
1.1944e+01  2.5229e+01
1.1959e+01  2.4960e+01
1.1973e+01  2.4942e+01
1.1988e+01  2.4870e+01
1.2003e+01  2.4893e+01
1.2018e+01  2.4674e+01
1.2033e+01  2.5095e+01
1.2048e+01  2.5341e+01
1.2062e+01  2.5315e+01
1.2077e+01  2.5031e+01
1.2092e+01  2.4879e+01
1.2107e+01  2.5115e+01
1.2122e+01  2.5947e+01
1.2136e+01  3.9143e+01
1.2151e+01  6.5945e+01
1.2166e+01  6.6757e+01
1.2181e+01  3.8701e+01
1.2195e+01  2.5810e+01
1.2210e+01  2.5180e+01
1.2225e+01  2.4994e+01
1.2240e+01  2.4805e+01
1.2255e+01  2.4534e+01
1.2269e+01  2.4460e+01
1.2284e+01  2.4440e+01
1.2299e+01  2.4486e+01
1.2314e+01  2.4353e+01
1.2328e+01  2.4263e+01
1.2343e+01  2.4436e+01
1.2358e+01  2.4641e+01
1.2372e+01  2.4696e+01
1.2387e+01  2.4559e+01
1.2402e+01  2.4728e+01
1.2417e+01  2.4571e+01
1.2431e+01  2.4441e+01
1.2446e+01  2.4339e+01
1.2461e+01  2.4411e+01
1.2476e+01  2.4554e+01
1.2490e+01  2.4313e+01
1.2505e+01  2.4549e+01
1.2520e+01  2.4316e+01
1.2534e+01  2.4501e+01
1.2549e+01  2.4382e+01
1.2564e+01  2.4442e+01
1.2578e+01  2.4365e+01
1.2593e+01  2.4440e+01
1.2608e+01  2.4368e+01
1.2622e+01  2.4445e+01
1.2637e+01  2.4509e+01
1.2652e+01  2.4865e+01
1.2666e+01  2.5542e+01
1.2681e+01  3.4849e+01
1.2696e+01  4.6850e+01
1.2710e+01  4.7181e+01
1.2725e+01  3.2279e+01
1.2740e+01  2.5571e+01
1.2754e+01  2.5240e+01
1.2769e+01  2.4791e+01
1.2784e+01  2.4691e+01
1.2798e+01  2.4875e+01
1.2813e+01  2.4794e+01
1.2828e+01  2.4685e+01
1.2842e+01  2.4678e+01
1.2857e+01  2.4760e+01
1.2871e+01  2.4835e+01
1.2886e+01  2.4935e+01
1.2901e+01  2.4835e+01
1.2915e+01  2.5126e+01
1.2930e+01  2.5764e+01
1.2944e+01  3.4885e+01
1.2959e+01  4.6993e+01
1.2974e+01  4.7204e+01
1.2988e+01  3.3262e+01
1.3003e+01  2.6071e+01
1.3017e+01  2.5848e+01
1.3032e+01  2.5730e+01
1.3046e+01  2.5564e+01
1.3061e+01  2.5516e+01
1.3076e+01  2.5166e+01
1.3090e+01  2.5268e+01
1.3105e+01  2.5136e+01
1.3119e+01  2.5276e+01
1.3134e+01  2.5449e+01
1.3148e+01  2.5518e+01
1.3163e+01  2.5766e+01
1.3177e+01  2.6406e+01
1.3192e+01  3.2275e+01
1.3206e+01  8.1608e+01
1.3221e+01  1.0990e+02
1.3235e+01  1.0330e+02
1.3250e+01  4.3111e+01
1.3264e+01  2.7093e+01
1.3279e+01  2.6097e+01
1.3293e+01  2.5926e+01
1.3308e+01  2.5702e+01
1.3322e+01  2.5720e+01
1.3337e+01  2.5782e+01
1.3351e+01  2.5713e+01
1.3366e+01  2.5481e+01
1.3380e+01  2.5468e+01
1.3395e+01  2.5489e+01
1.3409e+01  2.5530e+01
1.3424e+01  2.5679e+01
1.3438e+01  2.6512e+01
1.3453e+01  3.6978e+01
1.3467e+01  5.9541e+01
1.3482e+01  6.2468e+01
1.3496e+01  4.8087e+01
1.3511e+01  2.7474e+01
1.3525e+01  2.5787e+01
1.3539e+01  2.5344e+01
1.3554e+01  2.5061e+01
1.3568e+01  2.5241e+01
1.3583e+01  2.5239e+01
1.3597e+01  2.5258e+01
1.3612e+01  2.5465e+01
1.3626e+01  2.5413e+01
1.3640e+01  2.5461e+01
1.3655e+01  2.5426e+01
1.3669e+01  2.5327e+01
1.3684e+01  2.5320e+01
1.3698e+01  2.5387e+01
1.3712e+01  2.5506e+01
1.3727e+01  2.5463e+01
1.3741e+01  2.5389e+01
1.3755e+01  2.5559e+01
1.3770e+01  2.5496e+01
1.3784e+01  2.5611e+01
1.3799e+01  2.5535e+01
1.3813e+01  2.5590e+01
1.3827e+01  2.5826e+01
1.3842e+01  2.5900e+01
1.3856e+01  2.5794e+01
1.3870e+01  2.5799e+01
1.3885e+01  2.6183e+01
1.3899e+01  2.6198e+01
1.3913e+01  2.6854e+01
1.3928e+01  2.8127e+01
1.3942e+01  4.0633e+01
1.3956e+01  7.9383e+01
1.3971e+01  8.9166e+01
1.3985e+01  7.7309e+01
1.3999e+01  3.4772e+01
1.4014e+01  2.7079e+01
1.4028e+01  2.6517e+01
1.4042e+01  2.6358e+01
1.4056e+01  2.6020e+01
1.4071e+01  2.6059e+01
1.4085e+01  2.6021e+01
1.4099e+01  2.6270e+01
1.4114e+01  2.6002e+01
1.4128e+01  2.6212e+01
1.4142e+01  2.6204e+01
1.4156e+01  2.6367e+01
1.4171e+01  2.6976e+01
1.4185e+01  3.4162e+01
1.4199e+01  4.6846e+01
1.4213e+01  4.9103e+01
1.4228e+01  4.2661e+01
1.4242e+01  2.8721e+01
1.4256e+01  2.6293e+01
1.4270e+01  2.6212e+01
1.4285e+01  2.6339e+01
1.4299e+01  2.6295e+01
1.4313e+01  2.5927e+01
1.4327e+01  2.6145e+01
1.4342e+01  2.6102e+01
1.4356e+01  2.6051e+01
1.4370e+01  2.6146e+01
1.4384e+01  2.6170e+01
1.4398e+01  2.6022e+01
1.4413e+01  2.6251e+01
1.4427e+01  2.6221e+01
1.4441e+01  2.6484e+01
1.4455e+01  2.6490e+01
1.4469e+01  2.6529e+01
1.4483e+01  2.6598e+01
1.4498e+01  2.7072e+01
1.4512e+01  2.6953e+01
1.4526e+01  2.6649e+01
1.4540e+01  2.6627e+01
1.4554e+01  2.6482e+01
1.4568e+01  2.6405e+01
1.4582e+01  2.6259e+01
1.4597e+01  2.6397e+01
1.4611e+01  2.6271e+01
1.4625e+01  2.6406e+01
1.4639e+01  2.6799e+01
1.4653e+01  3.0492e+01
1.4667e+01  3.6881e+01
1.4681e+01  3.8005e+01
1.4695e+01  3.5181e+01
1.4710e+01  2.8037e+01
1.4724e+01  2.6597e+01
1.4738e+01  2.6683e+01
1.4752e+01  2.6148e+01
1.4766e+01  2.6556e+01
1.4780e+01  2.6445e+01
1.4794e+01  2.6338e+01
1.4808e+01  2.6764e+01
1.4822e+01  2.6687e+01
1.4836e+01  2.6827e+01
1.4850e+01  2.7162e+01
1.4865e+01  2.7534e+01
1.4879e+01  3.4593e+01
1.4893e+01  5.8929e+01
1.4907e+01  6.7363e+01
1.4921e+01  6.3352e+01
1.4935e+01  3.8574e+01
1.4949e+01  2.8640e+01
1.4963e+01  2.6796e+01
1.4977e+01  2.6731e+01
1.4991e+01  2.6429e+01
1.5005e+01  2.6688e+01
1.5019e+01  2.6627e+01
1.5033e+01  2.6283e+01
1.5047e+01  2.7048e+01
1.5061e+01  2.7035e+01
1.5075e+01  2.6313e+01
1.5089e+01  2.7711e+01
1.5103e+01  3.2924e+01
1.5117e+01  5.5685e+01
1.5131e+01  6.3904e+01
1.5145e+01  6.4024e+01
1.5159e+01  4.2697e+01
1.5173e+01  2.7634e+01
1.5187e+01  2.6653e+01
1.5201e+01  2.6532e+01
1.5215e+01  2.5483e+01
1.5229e+01  2.6063e+01
1.5243e+01  2.5861e+01
1.5257e+01  2.5548e+01
1.5271e+01  2.6402e+01
1.5284e+01  2.7475e+01
1.5298e+01  2.6481e+01
1.5312e+01  2.7485e+01
1.5326e+01  3.0638e+01
1.5340e+01  5.1902e+01
1.5354e+01  0.0000e+00
1.5368e+01  0.0000e+00
1.5382e+01  0.0000e+00
1.5396e+01  0.0000e+00
1.5410e+01  0.0000e+00
1.5424e+01  0.0000e+00
1.5438e+01  0.0000e+00
1.5489e+01  0.0000e+00